ax,ay,az,gx,gy,gz
314,-2434,-1375,-935,19,349
330,-2401,-1327,-745,-57,453
317,-2286,-1128,-553,-181,548
208,-2150,-881,-431,-285,608
60,-2040,-702,-427,-316,569
-33,-2023,-619,-526,-284,434
0,-2096,-724,-675,-227,258
120,-2231,-927,-782,-217,160
167,-2361,-1098,-779,-277,204
91,-2422,-1184,-677,-404,327
26,-2390,-1196,-519,-591,427
-15,-2321,-1172,-365,-720,489
-73,-2272,-1085,-271,-772,518
-148,-2184,-961,-224,-770,463
-268,-2135,-888,-217,-760,331
-228,-2137,-914,-262,-775,141
-41,-2214,-1011,-320,-744,-65
125,-2302,-1162,-304,-684,-216
334,-2307,-1219,-208,-701,-252
473,-2281,-1204,-106,-745,-162
516,-2282,-1190,-33,-795,-13
546,-2259,-1146,45,-886,98
530,-2247,-1105,133,-971,148
500,-2254,-1114,212,-1005,141
418,-2250,-1096,283,-1063,113
361,-2226,-1079,314,-1075,44
385,-2238,-1074,281,-1030,-63
455,-2306,-1117,204,-956,-157
542,-2388,-1227,175,-940,-192
634,-2441,-1322,227,-979,-166
655,-2472,-1391,322,-1069,-66
603,-2465,-1390,468,-1149,53
510,-2377,-1336,626,-1206,187
380,-2286,-1248,728,-1287,297
232,-2264,-1231,772,-1292,252
186,-2212,-1202,828,-1248,102
213,-2132,-1134,867,-1181,-83
300,-2086,-1112,860,-1043,-274
460,-2100,-1167,859,-917,-433
630,-2137,-1248,898,-844,-509
806,-2080,-1266,975,-820,-474
893,-2027,-1218,1000,-817,-358
906,-2014,-1183,977,-852,-189
908,-1933,-1115,988,-953,-15
829,-1849,-1031,981,-1040,81
751,-1836,-1007,892,-947,13
789,-1860,-1021,778,-715,-164
875,-1953,-1107,684,-473,-339
967,-2092,-1302,664,-302,-403
1090,-2138,-1406,769,-232,-329
1130,-2113,-1336,890,-195,-185
1083,-2019,-1217,990,-171,-16
1028,-1898,-1056,1038,-176,129
969,-1852,-966,998,-100,171
983,-1867,-994,931,35,130
986,-1888,-1031,896,139,91
1010,-1898,-1054,872,266,68
1072,-1881,-1043,854,381,92
1101,-1870,-982,837,480,157
1096,-1851,-943,817,578,216
1140,-1851,-934,788,678,274
1230,-1854,-910,747,773,326
1276,-1866,-937,702,904,389
1197,-1926,-994,689,1005,472
1065,-1927,-950,725,1042,553
907,-1868,-830,759,1087,599
737,-1842,-768,738,1155,634
607,-1875,-732,687,1209,662
523,-1917,-739,643,1222,670
442,-1920,-748,639,1234,668
421,-1873,-702,647,1229,646
357,-1865,-670,616,1291,573
269,-1898,-692,559,1399,454
283,-1974,-755,509,1492,348
351,-2088,-829,482,1515,309
348,-2156,-863,501,1481,390
256,-2157,-836,526,1363,579
80,-2185,-802,571,1291,683
-89,-2189,-716,626,1277,657
-205,-2174,-663,643,1290,552
-254,-2178,-619,622,1283,439
-220,-2219,-577,573,1300,349
-257,-2241,-564,520,1266,322
-314,-2239,-516,479,1160,320
-300,-2214,-421,437,1090,273
-304,-2220,-428,374,1062,227
-388,-2294,-521,337,1053,199
-436,-2298,-597,345,946,239
-434,-2287,-634,366,792,326
-606,-2366,-688,372,822,367
-807,-2432,-711,437,862,314
-904,-2407,-657,567,771,168
-945,-2348,-560,678,650,27
-916,-2286,-458,734,582,-75
-848,-2197,-355,726,537,-155
-791,-2120,-260,678,459,-208
-727,-2045,-164,618,405,-248
-722,-2027,-198,554,345,-273
-705,-2032,-286,557,233,-293
-695,-2036,-361,601,191,-346
-750,-2109,-510,652,130,-380
-786,-2104,-544,782,-11,-396
-843,-2018,-452,927,-95,-465
-769,-1863,-318,1007,-164,-572
-650,-1724,-229,984,-223,-669
-660,-1711,-205,888,-265,-713
-677,-1679,-183,814,-310,-734
-635,-1597,-116,784,-470,-741
-628,-1503,0,767,-667,-707
-635,-1435,79,719,-809,-691
-557,-1382,111,629,-918,-740
-446,-1376,59,513,-971,-819
-300,-1445,-142,402,-941,-888
-42,-1499,-280,383,-887,-932
65,-1530,-284,429,-848,-922
3,-1533,-265,520,-809,-908
27,-1426,-136,641,-868,-929
108,-1293,31,703,-1000,-910
142,-1210,166,660,-1153,-812
177,-1151,241,550,-1279,-741
218,-1115,277,422,-1347,-743
327,-1083,265,264,-1323,-800
462,-1100,201,98,-1253,-850
508,-1202,43,-30,-1155,-893
589,-1279,-112,-75,-1069,-949
755,-1297,-194,-57,-989,-995
816,-1325,-247,-14,-903,-986
842,-1308,-241,77,-862,-943
878,-1265,-129,170,-891,-884
908,-1148,33,213,-887,-833
915,-1009,185,167,-834,-807
1007,-931,322,40,-835,-775
1137,-892,375,-138,-786,-765
1257,-886,350,-323,-702,-765
1411,-923,305,-481,-610,-752
1507,-993,200,-614,-533,-700
1521,-1118,42,-706,-461,-623
1527,-1250,-90,-722,-448,-518
1601,-1282,-107,-671,-551,-372
1630,-1259,-30,-627,-654,-195
1558,-1229,45,-633,-674,-53
1488,-1230,90,-682,-589,-21
1499,-1228,141,-748,-428,-67
1461,-1253,123,-840,-209,-120
1392,-1293,27,-926,-59,-176
1479,-1277,-60,-978,18,-215
1470,-1332,-186,-1014,92,-186
1334,-1425,-319,-1005,70,-75
1350,-1440,-355,-983,-15,64
1399,-1459,-316,-1002,-74,214
1337,-1554,-325,-1067,-83,348
1229,-1642,-376,-1124,-49,402
1106,-1688,-427,-1137,30,360
1105,-1653,-463,-1142,121,265
1218,-1594,-491,-1189,213,196
1306,-1609,-574,-1269,312,208
1284,-1704,-674,-1311,368,279
1294,-1776,-769,-1287,356,351
1321,-1827,-801,-1208,316,420
1331,-1860,-770,-1156,361,499
1281,-1906,-764,-1165,455,586
1172,-1943,-744,-1166,501,683
1117,-1932,-705,-1143,561,701
1141,-1893,-699,-1149,671,651
1134,-1883,-771,-1169,759,618
1102,-1889,-853,-1147,838,615
1098,-1847,-855,-1099,900,639
1052,-1813,-864,-1078,903,711
984,-1807,-871,-1075,867,797
872,-1853,-903,-1113,891,878
760,-1975,-1025,-1164,925,951
693,-2094,-1132,-1157,906,1005
606,-2153,-1140,-1084,883,1044
476,-2142,-1086,-989,912,1029
365,-2089,-1034,-914,966,958
302,-2036,-995,-856,984,889
240,-1937,-920,-784,936,860
171,-1827,-796,-734,887,863
34,-1770,-697,-743,827,862
-125,-1766,-730,-810,706,851
-207,-1828,-867,-899,558,834
-235,-1940,-1075,-988,497,810
-244,-2069,-1268,-1034,442,805
-279,-2172,-1326,-992,369,797
-332,-2210,-1295,-892,327,736
-402,-2149,-1190,-748,297,616
-476,-2054,-1062,-619,298,447
-495,-1978,-948,-550,329,278
-485,-1921,-812,-530,262,168
-480,-1872,-729,-564,88,121
-465,-1878,-758,-659,-100,119
-428,-1934,-877,-782,-288,160
-406,-2041,-1036,-868,-434,217
-431,-2141,-1175,-885,-541,240
-438,-2148,-1188,-835,-659,200
-418,-2109,-1131,-786,-705,76
-393,-2085,-1074,-769,-685,-94
-344,-2067,-1027,-757,-666,-252
-303,-2086,-1063,-755,-705,-341
-231,-2097,-1107,-752,-838,-316
-103,-2085,-1101,-760,-1008,-234
11,-2103,-1094,-786,-1139,-159
55,-2158,-1159,-805,-1227,-101
60,-2210,-1225,-782,-1315,-50
-18,-2253,-1260,-736,-1341,-49
-147,-2308,-1343,-686,-1285,-138
-210,-2355,-1420,-592,-1236,-300
-148,-2331,-1421,-471,-1206,-451
-33,-2312,-1403,-405,-1182,-530
23,-2329,-1437,-367,-1215,-529
123,-2312,-1445,-294,-1307,-495
316,-2277,-1401,-224,-1350,-487
473,-2264,-1398,-179,-1303,-507
543,-2295,-1426,-118,-1202,-550
612,-2324,-1452,-16,-1140,-579
681,-2308,-1426,101,-1140,-531
652,-2273,-1371,201,-1192,-421
587,-2208,-1312,257,-1210,-352
521,-2203,-1313,264,-1146,-377
575,-2208,-1332,280,-1062,-470
752,-2184,-1346,316,-968,-561
917,-2189,-1366,336,-855,-592
995,-2227,-1405,365,-761,-548
999,-2245,-1422,439,-698,-470
949,-2208,-1413,541,-670,-393
934,-2138,-1382,624,-644,-342
938,-2091,-1342,667,-583,-307
939,-2050,-1322,684,-521,-280
981,-2034,-1319,691,-418,-295
1018,-2023,-1328,717,-315,-318
1013,-2001,-1315,748,-251,-298
990,-1988,-1316,776,-191,-259
977,-1969,-1313,798,-162,-189
944,-1974,-1313,808,-115,-93
850,-2008,-1324,841,-76,13
833,-1973,-1319,905,-83,90
903,-1935,-1309,955,-45,154
988,-1908,-1274,966,68,179
1108,-1900,-1258,958,261,106
1189,-1909,-1248,937,525,-14
1192,-1900,-1220,945,673,22
1145,-1863,-1179,969,671,180
1078,-1859,-1144,962,659,341
1048,-1891,-1138,943,679,441
973,-1918,-1126,965,677,514
883,-1863,-1088,1012,640,576
839,-1780,-1028,1016,668,605
725,-1775,-1019,969,765,600
651,-1769,-1025,935,874,535
750,-1774,-1016,893,1052,412
829,-1818,-1044,849,1197,354
801,-1843,-1008,852,1217,408
685,-1833,-938,859,1191,504
511,-1838,-867,836,1157,595
329,-1833,-799,805,1132,612
208,-1847,-781,769,1131,557
197,-1894,-828,713,1161,464
225,-1950,-891,656,1185,394
221,-2002,-936,616,1227,355
222,-2069,-999,590,1297,291
230,-2155,-1097,612,1327,243
238,-2231,-1131,683,1319,264
166,-2294,-1103,774,1294,328
8,-2311,-1024,878,1234,378
-141,-2244,-868,990,1134,369
-243,-2165,-693,1038,1064,306
-321,-2137,-640,1008,1045,207
-357,-2171,-661,974,997,99
-394,-2204,-703,977,915,18
-390,-2176,-657,1002,836,-38
-345,-2143,-571,999,791,-78
-259,-2127,-512,966,762,-127
-219,-2161,-495,942,727,-164
-170,-2122,-454,957,613,-145
-121,-2036,-365,976,516,-117
-153,-1994,-328,972,471,-94
-301,-1989,-326,960,414,-71
-431,-1965,-286,936,316,-57
-506,-1947,-251,892,216,-55
-553,-1970,-223,836,101,-38
-533,-1952,-172,789,-13,-23
-511,-1920,-117,755,-67,-49
-575,-1967,-137,692,-82,-115
-602,-2018,-199,681,-131,-204
-550,-2002,-211,750,-183,-316
-457,-1963,-222,799,-206,-400
-399,-1970,-262,802,-221,-406
-417,-2002,-305,822,-286,-370
-454,-1999,-303,881,-377,-350
-463,-1914,-235,945,-472,-359
-479,-1828,-138,970,-530,-390
-513,-1770,-81,944,-534,-457
-457,-1708,-20,902,-529,-567
-337,-1647,35,850,-539,-664
-225,-1598,58,776,-579,-703
-90,-1535,108,703,-632,-697
-16,-1501,161,613,-678,-668
15,-1495,172,519,-724,-635
73,-1482,148,449,-758,-615
130,-1500,100,389,-784,-596
168,-1503,59,339,-798,-587
219,-1502,30,297,-799,-591
287,-1488,39,264,-771,-589
282,-1479,46,229,-744,-568
245,-1490,32,200,-756,-552
289,-1474,36,178,-777,-559
378,-1446,45,157,-825,-543
376,-1452,24,139,-915,-474
264,-1442,0,143,-1038,-380
194,-1370,27,149,-1135,-336
210,-1302,66,106,-1159,-367
258,-1287,88,21,-1122,-444
370,-1294,70,-80,-1031,-567
628,-1272,47,-168,-915,-719
875,-1270,-1,-254,-787,-809
881,-1362,-118,-315,-707,-777
752,-1437,-206,-284,-750,-662
680,-1392,-181,-183,-891,-532
710,-1251,-63,-131,-1050,-401
773,-1172,51,-196,-1133,-292
866,-1165,86,-326,-1115,-267
1015,-1178,68,-465,-1009,-347
1157,-1228,20,-590,-824,-471
1266,-1299,-89,-670,-592,-594
1327,-1350,-185,-673,-414,-675
1364,-1370,-239,-626,-361,-678
1461,-1304,-201,-574,-393,-574
1587,-1227,-112,-580,-419,-414
1700,-1210,-43,-644,-386,-285
1762,-1238,-8,-712,-264,-255
1764,-1270,24,-778,-94,-291
1728,-1273,50,-845,80,-339
1658,-1314,25,-929,265,-388
1631,-1395,-90,-991,373,-419
1638,-1449,-212,-988,346,-384
1669,-1420,-291,-966,235,-253
1768,-1374,-330,-991,157,-74
1861,-1419,-369,-1062,121,131
1836,-1555,-468,-1099,113,328
1649,-1683,-552,-1068,146,439
1543,-1694,-523,-1023,293,433
1504,-1705,-540,-1031,493,398
1403,-1778,-609,-1043,615,404
1305,-1812,-665,-1017,686,417
1306,-1770,-684,-968,720,431
1315,-1686,-652,-921,696,513
1252,-1593,-604,-921,669,634
1148,-1577,-574,-979,700,711
1036,-1648,-545,-1058,773,736
886,-1760,-557,-1123,798,755
759,-1826,-595,-1160,752,765
703,-1808,-615,-1191,729,755
663,-1803,-663,-1247,758,737
579,-1863,-778,-1304,812,712
504,-1934,-919,-1304,839,682
520,-1937,-1001,-1249,817,678
494,-1931,-980,-1176,772,733
383,-1910,-927,-1112,728,810
304,-1900,-837,-1111,647,852
216,-1951,-761,-1146,540,934
129,-1990,-739,-1163,397,1000
62,-1968,-752,-1177,329,964
34,-1964,-776,-1223,387,834
52,-1988,-823,-1271,513,673
72,-2023,-892,-1270,606,530
106,-2018,-933,-1204,591,460
103,-1955,-892,-1106,482,497
28,-1896,-808,-1057,370,578
-91,-1904,-810,-1078,273,606
-190,-1968,-922,-1143,175,579
-197,-2058,-1098,-1206,78,561
-227,-2169,-1250,-1221,17,567
-351,-2230,-1322,-1155,-28,514
-433,-2208,-1303,-1033,-52,366
-400,-2135,-1232,-906,-71,200
-312,-2065,-1165,-801,-125,119
-269,-2001,-1056,-722,-230,131
-236,-1920,-913,-692,-395,188
-206,-1884,-838,-741,-561,242
-148,-1954,-862,-854,-683,281
-109,-2081,-974,-965,-776,305
-154,-2242,-1117,-1016,-835,278
-143,-2384,-1242,-994,-847,178
-84,-2460,-1322,-906,-869,83
-37,-2472,-1356,-791,-923,70
-42,-2502,-1359,-705,-983,122
-83,-2513,-1344,-622,-1078,186
-151,-2484,-1303,-518,-1190,233
-229,-2443,-1278,-446,-1291,243
-270,-2413,-1235,-416,-1330,177
-278,-2393,-1236,-422,-1253,-12
-142,-2428,-1280,-419,-1118,-282
37,-2508,-1390,-368,-982,-525
237,-2582,-1517,-253,-905,-641
416,-2605,-1550,-72,-942,-589
423,-2559,-1484,94,-1056,-418
320,-2467,-1399,220,-1173,-291
298,-2394,-1358,300,-1213,-285
400,-2359,-1381,350,-1172,-336
527,-2327,-1333,385,-1087,-407
607,-2290,-1270,397,-893,-535
713,-2276,-1260,409,-720,-670
839,-2252,-1233,462,-647,-710
902,-2188,-1172,525,-650,-626
839,-2163,-1171,562,-688,-472
787,-2150,-1195,594,-706,-344
747,-2115,-1183,630,-712,-274
672,-2123,-1230,651,-673,-274
681,-2117,-1286,691,-609,-352
744,-2099,-1327,733,-518,-459
797,-2085,-1366,765,-414,-529
852,-2055,-1340,806,-341,-544
974,-2019,-1279,852,-270,-526
1079,-2028,-1274,877,-188,-477
1123,-2075,-1285,914,-157,-371
1075,-2056,-1276,990,-178,-229
1022,-1977,-1204,1054,-169,-131
986,-1934,-1130,1056,-59,-109
947,-1931,-1099,1022,69,-127
925,-1966,-1118,992,158,-150
939,-2001,-1152,969,219,-137
952,-2036,-1199,951,269,-69
951,-2063,-1247,965,309,17
870,-2078,-1296,1014,371,87
830,-2025,-1274,1080,440,116
930,-1940,-1188,1130,523,105
1082,-1867,-1103,1134,652,91
1174,-1834,-1066,1113,787,103
1233,-1805,-1034,1110,858,168
1229,-1750,-992,1102,898,298
1092,-1719,-921,1067,937,455
939,-1706,-814,1007,999,540
849,-1737,-770,919,1091,542
811,-1809,-790,835,1171,517
796,-1905,-828,779,1234,491
780,-1981,-875,770,1269,478
722,-2034,-953,815,1285,477
641,-2097,-1003,880,1310,486
500,-2095,-979,965,1299,510
301,-2068,-892,1045,1261,528
138,-2052,-805,1082,1199,536
27,-2051,-686,1083,1142,524
-51,-2069,-546,1037,1129,497
-130,-2136,-479,957,1134,437
-184,-2207,-466,913,1098,353
-218,-2217,-444,917,1003,279
-220,-2190,-407,916,950,193
-280,-2261,-523,889,984,84
-361,-2359,-657,909,984,-12
-343,-2363,-663,1005,909,-79
-285,-2313,-561,1094,831,-101
-308,-2265,-458,1138,730,-71
-400,-2227,-355,1156,609,-43
-437,-2179,-276,1131,524,-60
-392,-2122,-257,1075,475,-91
-308,-2071,-203,998,442,-116
-242,-2066,-193,909,478,-169
-232,-2073,-238,870,495,-256
-213,-2028,-219,899,435,-347
-152,-1943,-165,920,376,-389
-220,-1933,-195,884,320,-352
-327,-2004,-290,838,241,-303
-355,-2010,-317,861,118,-244
-391,-1942,-261,911,-26,-211
-472,-1866,-205,927,-85,-261
-480,-1777,-141,911,-86,-351
-435,-1698,-69,878,-106,-414
-389,-1651,12,819,-106,-446
-398,-1627,63,746,-128,-457
-379,-1566,130,688,-234,-459
-361,-1486,247,638,-355,-428
-435,-1414,329,553,-485,-408
-593,-1382,280,468,-615,-430
-683,-1432,93,405,-693,-516
-602,-1500,-72,358,-725,-618
-412,-1537,-157,329,-758,-707
-227,-1564,-162,346,-785,-767
-20,-1551,-114,390,-786,-818
129,-1513,-40,440,-751,-867
254,-1422,55,478,-731,-874
324,-1369,140,473,-761,-842
295,-1336,198,439,-847,-775
314,-1253,275,413,-987,-698
336,-1165,324,334,-1088,-648
308,-1122,328,202,-1116,-647
400,-1108,319,40,-1037,-731
609,-1128,256,-129,-914,-850
779,-1193,136,-245,-822,-943
911,-1281,0,-286,-738,-996
1034,-1338,-119,-253,-716,-961
1041,-1371,-168,-161,-794,-807
926,-1329,-128,-64,-944,-592
785,-1291,-69,-23,-1051,-438
717,-1234,20,-30,-1137,-357
804,-1152,144,-103,-1148,-361
1068,-1132,212,-261,-1000,-456
1284,-1213,135,-423,-761,-590
1339,-1343,-21,-504,-535,-710
1303,-1451,-147,-470,-447,-745
1295,-1414,-156,-368,-529,-644
1287,-1310,-74,-304,-673,-435
1199,-1240,25,-308,-788,-240
1221,-1184,145,-368,-791,-157
1401,-1183,216,-492,-660,-184
1540,-1251,205,-622,-522,-221
1622,-1338,114,-716,-345,-275
1720,-1391,27,-757,-169,-332
1826,-1410,-11,-743,-38,-334
1829,-1402,-39,-710,65,-296
1777,-1390,-42,-674,108,-240
1739,-1363,11,-669,137,-165
1714,-1333,64,-748,145,-29
1639,-1428,62,-904,138,161
1527,-1579,-11,-1057,71,353
1439,-1678,-80,-1142,13,458
1387,-1708,-151,-1195,49,446
1365,-1741,-276,-1244,162,363
1338,-1820,-465,-1266,321,252
1379,-1874,-645,-1234,500,153
1447,-1845,-701,-1143,616,136
1447,-1756,-652,-1033,656,211
1346,-1710,-564,-923,674,311
1213,-1672,-460,-834,633,423
1130,-1581,-345,-781,471,555
1054,-1507,-258,-823,320,677
953,-1515,-273,-957,306,741
839,-1587,-363,-1101,386,710
803,-1665,-458,-1204,489,594
842,-1775,-587,-1261,620,481
936,-1848,-702,-1257,681,454
968,-1850,-740,-1191,658,496
902,-1803,-735,-1108,647,559
851,-1744,-671,-1039,661,602
817,-1685,-582,-1003,660,654
740,-1653,-512,-1015,586,750
632,-1660,-470,-1087,504,836
567,-1734,-520,-1232,497,869
454,-1920,-668,-1374,541,856
325,-2092,-838,-1422,571,800
334,-2138,-925,-1367,591,703
471,-2108,-930,-1286,613,631
502,-2054,-886,-1207,601,636
378,-2006,-843,-1128,572,663
298,-1940,-793,-1061,519,664
249,-1887,-719,-1036,441,683
183,-1897,-736,-1090,350,724
95,-1969,-864,-1177,248,768
-11,-2046,-991,-1246,151,795
-136,-2162,-1112,-1293,139,747
-116,-2255,-1216,-1287,176,606
4,-2285,-1235,-1205,195,468
10,-2257,-1208,-1093,180,402
-50,-2159,-1116,-982,124,381
-122,-2047,-1002,-907,46,371
-135,-1959,-909,-873,-40,354
-141,-1892,-828,-870,-99,320
-266,-1898,-847,-902,-157,274
-370,-1932,-927,-937,-236,217
-363,-1942,-998,-965,-362,162
-277,-1931,-1053,-998,-459,97
-236,-1950,-1089,-1032,-456,-4
-181,-2000,-1146,-1032,-407,-173
-19,-2005,-1153,-969,-427,-313
73,-1992,-1109,-888,-527,-304
102,-1993,-1097,-852,-651,-203
61,-2021,-1108,-829,-796,-113
-38,-2081,-1168,-807,-891,-95
-123,-2148,-1254,-790,-958,-123
-156,-2213,-1333,-767,-1026,-160
-104,-2271,-1420,-746,-1084,-198
45,-2351,-1482,-711,-1120,-260
275,-2406,-1517,-639,-1114,-346
454,-2457,-1540,-549,-1066,-404
538,-2531,-1585,-447,-1055,-371
542,-2560,-1586,-308,-1144,-249
453,-2512,-1505,-171,-1256,-116
290,-2476,-1445,-86,-1299,-74
165,-2482,-1455,-30,-1259,-157
155,-2499,-1518,30,-1199,-288
222,-2517,-1584,108,-1171,-380
267,-2494,-1571,202,-1163,-424
317,-2432,-1576,294,-1136,-472
565,-2406,-1538,386,-1066,-550
859,-2371,-1502,448,-935,-649
1010,-2335,-1493,538,-800,-672
1062,-2280,-1374,655,-758,-594
1071,-2185,-1244,738,-762,-499
1040,-2128,-1187,777,-795,-389
956,-2120,-1197,771,-822,-273
903,-2126,-1241,748,-774,-227
943,-2158,-1318,742,-671,-283
1049,-2206,-1430,782,-541,-363
1163,-2216,-1454,854,-412,-380
1220,-2196,-1438,927,-302,-334
1230,-2148,-1380,1010,-237,-251
1255,-2068,-1324,1063,-178,-161
1213,-2053,-1282,1091,-107,-66
1136,-2024,-1270,1109,-61,19
1104,-1962,-1244,1130,-14,66
1026,-1953,-1243,1121,69,101
929,-1953,-1257,1106,160,107
958,-1966,-1292,1104,267,42
1108,-1957,-1322,1121,391,-44
1216,-1913,-1310,1149,486,6
1265,-1889,-1269,1170,562,98
1215,-1881,-1238,1200,623,210
1127,-1819,-1147,1233,630,342
992,-1753,-1067,1238,636,457
833,-1727,-1011,1209,654,516
706,-1737,-1011,1164,730,478
602,-1780,-1040,1134,815,394
567,-1809,-1054,1124,867,339
606,-1795,-1031,1128,877,339
650,-1749,-978,1120,898,365
700,-1724,-859,1089,968,371
693,-1734,-779,1055,1047,351
632,-1726,-724,1053,1064,349
540,-1700,-639,1032,1042,390
370,-1704,-602,979,995,456
246,-1721,-585,915,947,473
239,-1773,-581,841,941,438
193,-1893,-626,780,950,395
77,-1990,-671,779,927,342
7,-2005,-669,813,906,261
4,-2006,-640,835,921,169
19,-2049,-657,835,986,85
80,-2085,-664,856,996,40
142,-2090,-614,889,943,45
115,-2083,-562,905,890,84
-26,-2102,-531,909,827,113
-146,-2109,-507,913,757,102
-231,-2100,-478,909,704,73
-344,-2131,-491,894,643,47
-398,-2176,-472,888,566,0
-339,-2188,-447,887,510,-85
-230,-2158,-421,890,483,-177
-160,-2137,-402,890,488,-240
-168,-2151,-410,896,475,-265
-162,-2110,-367,932,418,-259
-174,-2016,-276,963,356,-254
-228,-1963,-222,961,282,-249
-271,-1940,-177,942,206,-253
-288,-1904,-131,911,130,-262
-347,-1895,-142,855,61,-274
-398,-1893,-155,800,-9,-307
-411,-1872,-166,766,-85,-357
-373,-1846,-183,744,-157,-400
-354,-1803,-181,743,-224,-426
-318,-1722,-125,756,-299,-442
-320,-1661,-65,741,-329,-450
-440,-1666,-71,721,-414,-446
-503,-1614,-51,740,-561,-452
-414,-1504,44,757,-692,-484
-277,-1421,124,687,-753,-522
-134,-1409,131,576,-760,-580
4,-1414,119,497,-749,-663
155,-1402,107,439,-698,-744
252,-1411,82,389,-652,-786
333,-1423,58,344,-634,-793
386,-1464,42,314,-649,-764
328,-1513,-12,327,-734,-690
309,-1487,-26,367,-861,-610
350,-1433,13,379,-966,-540
401,-1412,40,349,-981,-522
486,-1397,53,315,-969,-567
535,-1390,61,294,-944,-621
570,-1372,57,270,-892,-651
578,-1386,42,250,-873,-643
643,-1391,55,226,-863,-616
744,-1401,78,171,-845,-577
783,-1413,99,118,-853,-517
810,-1421,110,75,-880,-463
886,-1363,144,44,-930,-442
965,-1321,170,-21,-919,-455
1048,-1335,138,-117,-796,-526
1109,-1358,99,-190,-672,-604
1160,-1371,89,-232,-613,-633
1258,-1351,103,-276,-582,-610
1333,-1352,99,-328,-571,-557
1324,-1358,63,-366,-572,-497
1260,-1310,72,-386,-578,-431
1193,-1253,81,-436,-572,-367
1172,-1217,80,-533,-547,-326
1214,-1206,72,-648,-480,-328
1378,-1243,47,-764,-352,-356
1558,-1364,8,-872,-199,-365
1597,-1502,-75,-915,-120,-320
1625,-1533,-74,-871,-125,-227
1694,-1481,-14,-844,-122,-119
1698,-1481,-23,-860,-84,-5
1611,-1516,-103,-849,-88,120
1552,-1481,-142,-813,-140,263
1518,-1388,-122,-832,-157,388
1404,-1359,-144,-923,-86,443
1364,-1404,-190,-1044,81,401
1479,-1520,-234,-1156,257,336
1513,-1683,-325,-1220,358,341
1480,-1750,-389,-1206,395,387
1512,-1731,-375,-1175,443,431
1494,-1731,-411,-1169,524,489
1374,-1737,-468,-1145,607,539
1272,-1700,-477,-1102,706,534
1253,-1656,-422,-1084,803,524
1211,-1617,-390,-1107,816,594
1104,-1665,-406,-1171,754,711
966,-1767,-493,-1255,717,817
850,-1846,-549,-1300,663,912
783,-1849,-547,-1308,624,958
712,-1857,-566,-1314,677,899
730,-1863,-627,-1317,806,760
777,-1892,-723,-1281,926,635
779,-1876,-788,-1195,969,603
751,-1782,-730,-1111,965,639
691,-1724,-659,-1093,960,677
587,-1740,-692,-1131,905,724
465,-1789,-825,-1164,773,782
365,-1836,-949,-1184,671,830
249,-1879,-1019,-1187,627,839
261,-1847,-1005,-1178,623,798
264,-1834,-990,-1179,640,756
205,-1879,-1031,-1199,658,723
209,-1916,-1042,-1189,656,673
233,-1953,-1018,-1153,641,637
185,-1985,-1033,-1131,589,658
83,-2012,-1018,-1116,501,689
-2,-2003,-982,-1107,416,686
-76,-1991,-953,-1110,361,637
-134,-1991,-939,-1120,352,537
-169,-2034,-981,-1116,343,419
-139,-2039,-992,-1090,255,364
-149,-2018,-986,-1067,134,386
-239,-2037,-981,-1061,23,419
-297,-2044,-978,-1055,-89,410
-278,-2049,-979,-1059,-193,383
-282,-2091,-1021,-1083,-266,353
-335,-2149,-1083,-1082,-322,290
-375,-2193,-1110,-1042,-363,192
-366,-2227,-1142,-999,-389,103
-341,-2258,-1146,-954,-463,70
-382,-2285,-1143,-914,-556,58
-381,-2336,-1190,-880,-635,30
-298,-2364,-1228,-833,-761,27
-309,-2363,-1226,-784,-883,54
-430,-2386,-1245,-748,-943,28
-491,-2413,-1292,-690,-989,-77
-480,-2406,-1329,-604,-1049,-194
-480,-2377,-1342,-534,-1096,-284
-441,-2395,-1402,-469,-1112,-372
-200,-2402,-1406,-385,-1151,-462
53,-2383,-1364,-298,-1176,-518
189,-2390,-1328,-215,-1188,-523
307,-2380,-1288,-129,-1232,-491
416,-2351,-1252,-46,-1270,-445
443,-2364,-1264,26,-1261,-420
523,-2354,-1248,97,-1205,-441
698,-2339,-1236,136,-1122,-482
825,-2384,-1270,182,-1049,-477
915,-2389,-1277,253,-1022,-420
982,-2352,-1220,308,-976,-351
943,-2348,-1203,328,-900,-278
827,-2347,-1210,369,-879,-198
748,-2337,-1224,419,-874,-164
721,-2349,-1285,471,-821,-186
741,-2361,-1383,544,-719,-238
845,-2328,-1413,636,-582,-279
918,-2323,-1447,702,-407,-296
875,-2322,-1451,782,-316,-283
862,-2267,-1392,886,-300,-265
878,-2152,-1314,974,-309,-211
810,-2064,-1265,1003,-322,-112
800,-1996,-1232,1001,-311,-36
719,-1991,-1220,993,-266,-5
652,-2005,-1205,980,-173,-46
665,-1984,-1199,994,-121,-69
730,-1958,-1218,1006,-136,-65
778,-1937,-1233,1012,-85,-70
805,-1914,-1233,1016,2,-87
879,-1884,-1223,1036,74,-95
1054,-1807,-1159,1077,124,-100
1211,-1728,-1090,1078,226,-83
1238,-1723,-1108,1044,381,-42
1243,-1690,-1085,1040,440,49
1205,-1663,-1032,1024,460,161
1036,-1690,-1050,987,489,268
888,-1701,-1066,967,492,332
873,-1681,-1050,947,523,346
888,-1654,-1011,901,621,354
773,-1740,-1045,830,754,334
723,-1783,-1075,818,821,298
774,-1714,-980,844,820,313
793,-1714,-908,799,885,355
767,-1777,-853,747,979,380
730,-1813,-824,740,1002,401
651,-1842,-813,735,1007,422
519,-1912,-838,704,1035,441
411,-1965,-848,687,1037,441
340,-2008,-859,684,1036,407
306,-2028,-853,692,1044,364
215,-2076,-817,695,1069,334
128,-2140,-817,685,1068,310
61,-2179,-805,698,1000,323
6,-2171,-749,715,926,357
-94,-2175,-686,716,901,348
-226,-2191,-627,725,891,283
-349,-2186,-584,741,874,178
-366,-2187,-555,733,847,64
-265,-2206,-536,706,814,-21
-217,-2258,-540,693,795,-68
-241,-2314,-551,717,745,-98
-256,-2302,-521,781,650,-124
-245,-2264,-475,823,592,-140
-261,-2282,-465,814,570,-151
-265,-2316,-473,811,535,-179
-279,-2315,-453,819,478,-205
-335,-2299,-454,821,436,-237
-349,-2311,-486,830,411,-294
-296,-2299,-519,863,354,-342
-273,-2262,-527,919,269,-339
-315,-2216,-537,987,187,-296
-346,-2138,-480,1064,102,-279
-378,-2034,-345,1118,45,-309
-402,-1935,-207,1124,28,-383
-462,-1883,-141,1116,-27,-433
-499,-1813,-100,1097,-150,-437
-454,-1727,-37,1043,-271,-433
-443,-1649,28,932,-332,-435
-452,-1596,70,777,-382,-467
-387,-1560,65,634,-435,-519
-295,-1620,-32,548,-494,-553
-169,-1679,-168,523,-549,-558
-53,-1738,-265,568,-614,-533
66,-1759,-300,655,-685,-490
110,-1718,-224,780,-721,-453
118,-1600,-116,894,-798,-471
146,-1476,-20,950,-808,-557
145,-1385,54,945,-741,-651
249,-1264,141,894,-659,-724
291,-1229,198,801,-623,-734
335,-1184,247,705,-689,-689
518,-1139,326,599,-725,-678
674,-1127,374,484,-745,-652
727,-1136,370,378,-760,-603
742,-1133,355,295,-800,-545
699,-1130,305,217,-864,-468
596,-1134,232,146,-945,-383
465,-1163,128,102,-1008,-320
475,-1155,138,68,-1040,-294
558,-1105,232,-1,-1013,-293
588,-1151,245,-133,-902,-337
623,-1243,192,-225,-829,-408
763,-1255,179,-259,-789,-485
761,-1295,144,-298,-765,-490
731,-1283,110,-323,-787,-457
779,-1237,153,-338,-832,-434
861,-1192,179,-391,-882,-402
937,-1156,207,-477,-843,-411
1085,-1188,190,-585,-738,-470
1237,-1275,113,-691,-644,-501
1380,-1362,34,-749,-558,-494
1532,-1389,13,-770,-481,-463
1616,-1422,-17,-780,-392,-415
1623,-1435,-39,-760,-331,-362
1610,-1363,-2,-725,-293,-319
1653,-1293,-15,-753,-217,-304
1695,-1338,-99,-849,-113,-260
1673,-1446,-176,-937,-55,-161
1679,-1553,-246,-1010,-3,-61
1747,-1625,-281,-1063,28,46
1761,-1684,-307,-1095,63,161
1731,-1742,-389,-1103,115,245
1660,-1786,-488,-1076,169,300
1514,-1802,-554,-1016,251,311
1430,-1780,-570,-966,404,266
1438,-1757,-549,-937,523,259
1404,-1742,-471,-924,577,331
1285,-1802,-446,-958,611,430
1138,-1894,-453,-987,590,525
1023,-1923,-436,-992,530,596
957,-1921,-423,-987,504,594
914,-1897,-430,-999,542,552
841,-1892,-473,-1032,598,506
794,-1922,-571,-1045,665,420
828,-1918,-630,-1013,734,313
887,-1877,-644,-957,766,269
922,-1801,-612,-899,727,327
853,-1794,-573,-896,659,443
766,-1841,-562,-941,591,557
706,-1881,-554,-1003,523,664
678,-1914,-575,-1056,500,720
681,-1948,-642,-1090,551,689
652,-1990,-733,-1073,646,624
572,-2003,-826,-1025,710,581
551,-1988,-847,-970,754,561
587,-1915,-816,-916,773,575
568,-1817,-752,-876,753,620
475,-1734,-682,-853,777,622
386,-1689,-658,-864,825,578
355,-1692,-689,-914,803,549
337,-1722,-765,-967,709,580
348,-1710,-810,-1011,618,644
344,-1707,-837,-1073,577,690
206,-1772,-887,-1115,597,669
78,-1829,-929,-1090,619,585
73,-1815,-906,-1021,577,510
103,-1771,-846,-975,531,497
53,-1742,-792,-943,470,523
-20,-1690,-708,-915,368,544
-103,-1652,-617,-929,273,555
-213,-1695,-705,-1020,195,557
-370,-1832,-893,-1104,46,567
-498,-1934,-1043,-1144,-63,539
-590,-2047,-1173,-1167,-82,424
-654,-2213,-1296,-1117,-52,241
-581,-2316,-1309,-978,-97,88
-472,-2298,-1226,-804,-275,59
-432,-2240,-1098,-688,-462,104
-503,-2199,-1008,-656,-590,148
-583,-2169,-953,-668,-740,155
-551,-2141,-915,-717,-879,107
-453,-2163,-992,-806,-935,22
-376,-2238,-1104,-867,-978,-31
-260,-2337,-1176,-896,-1022,-87
-63,-2464,-1278,-884,-1017,-191
50,-2625,-1416,-801,-1013,-268
167,-2775,-1534,-670,-1023,-257
290,-2840,-1557,-519,-1091,-156
260,-2887,-1556,-368,-1202,-11
140,-2864,-1521,-202,-1309,65
22,-2742,-1423,-45,-1354,33
-78,-2659,-1354,39,-1348,-56
-35,-2580,-1303,81,-1321,-190
143,-2502,-1247,107,-1262,-334
313,-2457,-1211,127,-1199,-423
395,-2434,-1171,157,-1124,-450
401,-2428,-1147,195,-1124,-423
331,-2425,-1160,240,-1180,-380
275,-2392,-1168,307,-1194,-411
229,-2343,-1193,382,-1161,-510
211,-2318,-1263,451,-1122,-599
218,-2288,-1345,526,-1131,-638
316,-2225,-1358,614,-1173,-653
572,-2143,-1314,667,-1123,-707
840,-2089,-1282,676,-975,-786
1058,-2118,-1265,696,-824,-814
1213,-2127,-1239,754,-757,-754
1305,-2088,-1189,815,-739,-638
1325,-2048,-1160,833,-691,-502
1312,-2068,-1194,817,-601,-368
1246,-2151,-1319,835,-541,-258
1195,-2166,-1398,918,-497,-174
1188,-2110,-1387,1003,-435,-149
1235,-2044,-1309,1054,-288,-190
1289,-2015,-1254,1056,-64,-218
1338,-2046,-1254,1061,77,-208
1368,-2045,-1227,1100,146,-137
1317,-2027,-1188,1117,210,-21
1247,-2001,-1161,1124,258,83
1161,-1963,-1117,1131,311,148
1103,-1925,-1099,1112,396,187
1023,-1907,-1079,1083,470,203
957,-1886,-1068,1063,565,175
1006,-1843,-1055,1050,675,124
1087,-1789,-993,1037,768,110
1134,-1769,-922,994,880,134
1124,-1784,-885,954,958,206
1039,-1758,-833,955,948,315
979,-1706,-783,940,947,412
925,-1684,-727,898,977,491
847,-1670,-698,839,1034,526
747,-1664,-678,770,1115,509
611,-1694,-687,710,1199,461
499,-1734,-715,656,1260,430
507,-1855,-783,612,1335,351
505,-1969,-815,636,1367,328
364,-2045,-820,711,1287,414
131,-2061,-767,812,1145,505
-10,-1983,-646,896,1023,515
-56,-1922,-531,912,987,445
-162,-1959,-512,869,1043,325
-255,-1994,-519,835,1100,183
-217,-2046,-504,798,1146,37
-124,-2096,-500,763,1142,-38
-193,-2182,-554,752,1075,-8
-270,-2200,-519,779,964,42
-287,-2181,-413,804,889,30
-349,-2182,-390,812,828,-9
-429,-2187,-376,829,766,-69
-439,-2169,-360,838,712,-154
-389,-2185,-354,830,668,-224
-315,-2184,-359,828,593,-246
-300,-2162,-317,850,510,-230
-357,-2136,-271,866,439,-230
-336,-2082,-199,882,364,-254
-280,-2008,-121,877,317,-263
-296,-1950,-62,835,277,-268
-303,-1915,-36,770,242,-306
-280,-1911,-29,708,198,-346
-293,-1913,-54,656,142,-369
-306,-1913,-105,623,56,-382
-339,-1933,-153,619,-43,-376
