ax,ay,az,gx,gy,gz
-432,-1187,69,1023,-565,-1320
-140,-1106,142,981,-659,-1355
-45,-1106,180,891,-701,-1324
-15,-1107,166,799,-757,-1311
141,-1046,201,756,-707,-1336
268,-1020,282,711,-555,-1346
233,-1024,308,645,-529,-1330
187,-974,348,575,-614,-1334
175,-891,423,506,-622,-1396
94,-892,374,368,-614,-1472
43,-916,260,256,-710,-1530
305,-802,267,224,-827,-1591
624,-735,308,145,-819,-1606
742,-778,222,-8,-755,-1537
782,-842,73,-126,-727,-1475
912,-835,17,-152,-773,-1475
1025,-788,76,-186,-779,-1474
1042,-811,55,-303,-702,-1434
1037,-894,-17,-367,-673,-1358
1048,-884,7,-341,-758,-1266
1003,-862,59,-315,-825,-1177
997,-821,115,-353,-884,-1125
1185,-789,151,-488,-906,-1131
1404,-846,106,-681,-778,-1140
1560,-969,-61,-847,-643,-1108
1658,-1104,-220,-887,-631,-999
1683,-1167,-319,-809,-704,-833
1647,-1152,-386,-702,-740,-670
1626,-1092,-356,-578,-752,-558
1671,-1009,-254,-529,-709,-498
1703,-1004,-191,-583,-615,-444
1705,-1043,-147,-686,-540,-375
1642,-1079,-129,-791,-496,-311
1554,-1169,-158,-907,-468,-259
1549,-1244,-210,-989,-482,-208
1636,-1224,-215,-1028,-510,-150
1742,-1172,-219,-1077,-473,-93
1733,-1197,-319,-1169,-394,-26
1679,-1208,-451,-1232,-349,49
1774,-1217,-526,-1256,-290,73
2004,-1275,-635,-1284,-122,87
2270,-1369,-758,-1289,85,135
2423,-1513,-807,-1224,333,170
2322,-1647,-808,-1131,570,197
2132,-1653,-743,-1035,698,295
1953,-1547,-583,-981,663,463
1821,-1404,-426,-1054,612,625
1657,-1351,-423,-1233,649,715
1495,-1357,-540,-1426,695,754
1402,-1368,-659,-1578,741,769
1285,-1440,-828,-1729,810,800
1126,-1577,-998,-1862,808,915
1015,-1779,-1117,-1927,708,1132
916,-1895,-1107,-1898,544,1353
734,-1936,-1041,-1831,477,1420
592,-1961,-1049,-1784,550,1281
529,-1967,-1069,-1724,675,1064
551,-1923,-1071,-1655,757,893
625,-1892,-1074,-1603,747,819
642,-1857,-1082,-1540,670,839
519,-1863,-1142,-1514,591,889
420,-1879,-1198,-1504,503,893
448,-1862,-1192,-1477,440,864
482,-1855,-1182,-1479,414,873
431,-1907,-1179,-1487,364,949
291,-1980,-1161,-1490,300,1011
204,-1972,-1086,-1479,238,989
189,-1933,-1029,-1468,208,893
180,-1958,-1085,-1479,249,754
157,-2016,-1178,-1469,275,623
149,-2043,-1241,-1435,273,513
167,-2072,-1298,-1405,224,447
172,-2115,-1356,-1365,112,464
104,-2181,-1440,-1317,-33,527
41,-2191,-1473,-1238,-169,552
2,-2180,-1428,-1146,-243,513
-46,-2202,-1369,-1069,-282,442
-46,-2223,-1339,-1003,-329,379
-29,-2281,-1333,-954,-404,346
-5,-2306,-1345,-903,-504,325
12,-2302,-1333,-841,-595,293
-31,-2356,-1401,-786,-660,262
-68,-2402,-1476,-704,-748,227
-81,-2402,-1520,-583,-857,179
-29,-2379,-1569,-457,-937,138
-10,-2400,-1626,-360,-984,114
-90,-2443,-1723,-251,-1086,137
-154,-2412,-1719,-106,-1248,152
-226,-2321,-1612,32,-1390,113
-236,-2230,-1501,99,-1424,-14
-93,-2180,-1432,91,-1311,-211
211,-2175,-1378,93,-1294,-342
509,-2167,-1362,126,-1339,-353
651,-2194,-1402,165,-1335,-314
682,-2209,-1438,233,-1346,-279
779,-2164,-1428,323,-1361,-259
786,-2148,-1408,397,-1357,-206
710,-2156,-1427,445,-1326,-174
689,-2194,-1489,486,-1277,-188
699,-2267,-1571,530,-1215,-184
690,-2302,-1633,603,-1220,-139
689,-2284,-1610,691,-1254,-95
687,-2251,-1568,768,-1238,-87
662,-2206,-1554,833,-1198,-93
657,-2137,-1514,886,-1195,-105
651,-2075,-1445,903,-1122,-182
640,-2043,-1414,891,-929,-267
626,-2064,-1424,872,-789,-366
634,-2056,-1407,898,-723,-440
644,-2021,-1382,926,-689,-476
664,-1988,-1374,945,-662,-462
725,-1931,-1372,954,-645,-401
814,-1912,-1371,972,-634,-345
977,-1908,-1340,983,-585,-325
1094,-1899,-1320,1009,-530,-263
1155,-1860,-1243,1047,-497,-159
1158,-1838,-1177,1058,-426,-86
1069,-1829,-1154,1039,-281,-71
987,-1843,-1171,1008,-83,-128
919,-1873,-1218,1005,63,-176
908,-1847,-1240,1024,112,-170
941,-1799,-1241,1030,127,-101
931,-1837,-1276,1012,172,-25
982,-1869,-1271,1043,229,85
1066,-1869,-1170,1107,206,242
1012,-1825,-1105,1151,146,416
857,-1757,-1059,1174,108,563
748,-1735,-1022,1166,159,603
665,-1701,-1004,1135,322,538
601,-1707,-1023,1096,551,417
657,-1688,-1002,1091,642,329
849,-1605,-905,1072,707,299
909,-1626,-860,991,812,362
863,-1653,-861,939,805,475
833,-1612,-790,941,757,561
704,-1581,-731,914,767,595
531,-1626,-777,835,902,543
434,-1683,-842,772,1069,443
445,-1719,-880,747,1164,350
513,-1766,-917,721,1188,340
487,-1805,-912,700,1151,441
365,-1860,-927,684,1099,548
298,-1913,-912,700,1041,602
225,-1912,-854,746,982,624
100,-1862,-739,782,974,586
-5,-1843,-666,758,1089,433
-82,-1904,-683,706,1218,230
-105,-1992,-747,664,1295,83
-89,-2040,-760,640,1260,74
-187,-2094,-715,622,1165,170
-336,-2124,-644,614,1052,233
-395,-2156,-555,622,966,199
-415,-2171,-498,628,926,122
-414,-2168,-461,640,879,38
-415,-2152,-410,657,814,-36
-453,-2171,-417,659,775,-118
-474,-2182,-440,667,737,-213
-439,-2162,-422,684,712,-309
-428,-2182,-424,680,701,-371
-415,-2202,-435,672,658,-389
-387,-2181,-398,691,552,-367
-374,-2135,-328,700,434,-319
-343,-2106,-294,679,362,-304
-349,-2124,-311,664,319,-330
-344,-2113,-336,682,273,-378
-349,-2105,-351,721,250,-428
-346,-2092,-353,769,204,-465
-336,-2025,-313,820,113,-475
-375,-1964,-253,847,42,-478
-375,-1909,-201,834,8,-504
-350,-1885,-150,815,-45,-519
-384,-1816,-105,819,-128,-524
-392,-1735,-48,791,-183,-558
-319,-1686,11,726,-222,-608
-266,-1684,34,652,-251,-648
-220,-1675,28,598,-296,-677
-205,-1676,29,557,-370,-696
-150,-1659,12,519,-457,-710
-95,-1656,-43,482,-538,-713
-46,-1701,-128,458,-562,-733
54,-1732,-166,466,-573,-769
194,-1695,-130,502,-599,-791
257,-1683,-69,514,-579,-799
233,-1696,-58,515,-579,-799
220,-1666,-27,522,-656,-786
264,-1610,5,505,-752,-734
248,-1565,23,461,-809,-671
205,-1534,32,405,-839,-664
295,-1482,57,349,-834,-736
386,-1481,52,277,-779,-815
424,-1505,4,213,-732,-865
526,-1491,-22,177,-716,-909
638,-1482,-31,145,-720,-928
759,-1490,-65,106,-714,-923
849,-1501,-113,77,-702,-904
854,-1511,-155,80,-694,-865
807,-1491,-164,118,-749,-806
741,-1403,-106,167,-856,-733
649,-1293,-27,175,-940,-665
605,-1199,55,130,-1006,-639
755,-1102,158,38,-1017,-676
988,-1027,199,-116,-901,-768
1091,-1082,109,-277,-730,-879
1241,-1128,3,-381,-579,-994
1400,-1156,-95,-426,-483,-1045
1490,-1156,-163,-443,-464,-967
1458,-1158,-200,-431,-509,-807
1400,-1102,-184,-401,-553,-671
1477,-1000,-57,-398,-540,-621
1645,-956,87,-468,-454,-616
1696,-993,140,-588,-320,-606
1674,-1030,139,-693,-199,-596
1705,-1042,160,-768,-121,-596
1825,-1010,190,-841,-68,-579
1993,-946,228,-934,-8,-527
2081,-937,182,-1071,102,-446
2031,-992,36,-1199,191,-356
2023,-1045,-154,-1278,246,-284
2073,-1090,-335,-1324,272,-169
2042,-1123,-453,-1346,276,21
1924,-1190,-516,-1358,288,213
1819,-1262,-535,-1362,305,363
1746,-1285,-487,-1362,321,493
1639,-1305,-454,-1403,359,603
1551,-1308,-461,-1472,459,645
1527,-1280,-486,-1553,589,622
1462,-1292,-543,-1631,716,596
1354,-1297,-596,-1693,824,581
1338,-1298,-645,-1736,891,572
1323,-1337,-767,-1763,897,618
1219,-1407,-896,-1763,812,764
1031,-1456,-957,-1741,658,978
845,-1491,-979,-1731,505,1167
673,-1571,-986,-1756,423,1294
483,-1656,-983,-1775,408,1323
343,-1730,-980,-1782,466,1211
294,-1825,-1010,-1788,557,1045
280,-1873,-1040,-1784,593,932
203,-1957,-1124,-1781,549,892
171,-1988,-1192,-1747,432,889
194,-1972,-1202,-1695,318,886
228,-1979,-1221,-1662,253,895
239,-2018,-1263,-1632,193,933
147,-2140,-1348,-1594,85,1001
49,-2225,-1412,-1524,-73,1075
5,-2268,-1422,-1418,-199,1096
-58,-2284,-1416,-1319,-200,1017
-102,-2297,-1399,-1231,-128,835
38,-2216,-1296,-1137,-62,629
161,-2136,-1174,-1078,-5,513
88,-2137,-1157,-1052,-30,504
29,-2120,-1142,-1026,-135,519
38,-2119,-1158,-1031,-272,542
5,-2169,-1218,-1057,-407,597
-35,-2252,-1287,-1075,-480,616
-99,-2362,-1369,-1057,-508,560
-198,-2448,-1445,-980,-514,437
-212,-2492,-1525,-879,-501,276
-174,-2544,-1600,-764,-522,164
-180,-2543,-1594,-624,-623,136
-254,-2458,-1509,-478,-767,128
-298,-2353,-1412,-389,-890,99
-368,-2297,-1377,-369,-971,69
-490,-2302,-1419,-367,-1064,26
-518,-2272,-1440,-326,-1185,-33
-502,-2188,-1407,-270,-1299,-101
-556,-2097,-1335,-236,-1360,-185
-566,-1973,-1262,-231,-1377,-341
-430,-1886,-1232,-269,-1347,-545
-172,-1883,-1296,-335,-1287,-719
145,-1954,-1426,-349,-1286,-823
404,-2063,-1564,-299,-1344,-818
589,-2154,-1637,-194,-1408,-767
674,-2164,-1642,-26,-1489,-696
735,-2175,-1614,97,-1522,-631
781,-2203,-1614,185,-1536,-548
762,-2222,-1646,275,-1577,-426
752,-2240,-1694,353,-1632,-300
766,-2244,-1709,444,-1709,-179
841,-2206,-1673,528,-1734,-124
1001,-2206,-1660,560,-1586,-178
1170,-2277,-1742,587,-1377,-268
1258,-2372,-1829,693,-1173,-302
1187,-2405,-1888,879,-1086,-250
1119,-2390,-1942,1068,-1054,-160
1109,-2377,-1958,1232,-1015,-39
1071,-2341,-1905,1398,-1034,116
1074,-2199,-1732,1548,-1067,236
1080,-2063,-1562,1627,-1019,314
1089,-2017,-1461,1624,-945,393
1134,-2023,-1396,1600,-876,466
1124,-2027,-1328,1555,-784,512
1100,-1941,-1266,1547,-697,579
916,-1856,-1136,1548,-642,644
619,-1835,-1105,1457,-426,512
507,-1815,-1116,1361,-108,261
621,-1776,-1075,1275,127,42
648,-1758,-1056,1163,290,-63
646,-1719,-1043,1083,364,-49
733,-1740,-1047,1012,380,-2
837,-1775,-1071,951,407,76
843,-1790,-1073,936,436,183
743,-1803,-1069,956,479,263
607,-1777,-1089,987,545,296
502,-1726,-1052,1017,611,308
365,-1690,-1018,1004,730,289
323,-1675,-1004,956,879,196
386,-1674,-984,918,1010,68
391,-1660,-943,888,1091,24
363,-1658,-877,842,1122,54
381,-1685,-795,786,1101,109
334,-1733,-797,739,1063,192
229,-1764,-818,730,993,278
229,-1738,-785,730,970,289
225,-1755,-793,684,1069,217
108,-1838,-878,632,1216,112
34,-1895,-934,615,1319,-9
43,-1935,-887,602,1365,-72
18,-2013,-846,566,1364,-46
-100,-2089,-838,567,1244,37
-136,-2078,-752,596,1089,110
-121,-2054,-653,593,986,172
-199,-2023,-611,570,939,192
-312,-2031,-610,547,991,70
-368,-2082,-660,526,1154,-178
-383,-2165,-734,528,1329,-436
-381,-2271,-838,563,1392,-594
-327,-2309,-897,639,1266,-569
-332,-2290,-861,722,1018,-386
-445,-2243,-784,785,758,-176
-536,-2187,-664,825,558,-70
-514,-2136,-558,835,437,-73
-438,-2092,-496,837,375,-128
-415,-2068,-471,837,360,-197
-396,-2045,-451,835,388,-302
-409,-2053,-474,835,436,-412
-394,-2035,-490,846,443,-495
-392,-2005,-494,872,416,-532
-446,-2002,-483,891,356,-525
-433,-1972,-464,925,241,-509
-402,-1905,-383,979,91,-483
-422,-1811,-260,995,-32,-460
-426,-1743,-171,959,-77,-510
-374,-1710,-133,902,-52,-626
-365,-1702,-134,849,-49,-718
-342,-1669,-117,810,-107,-762
-215,-1626,-75,772,-184,-763
-160,-1626,-45,717,-278,-717
-165,-1632,-63,668,-380,-686
-102,-1620,-79,639,-470,-703
0,-1591,-76,608,-511,-741
85,-1583,-89,570,-506,-777
129,-1587,-99,547,-516,-804
159,-1585,-105,531,-498,-853
314,-1589,-90,510,-424,-926
460,-1619,-78,493,-374,-948
487,-1629,-72,499,-410,-894
521,-1563,-12,506,-487,-825
520,-1527,29,466,-558,-743
417,-1528,19,425,-647,-660
326,-1504,-29,390,-756,-613
337,-1461,-24,355,-861,-596
411,-1411,11,277,-872,-617
531,-1405,-25,166,-732,-734
694,-1489,-123,91,-558,-891
894,-1515,-167,88,-451,-971
1028,-1519,-174,124,-442,-933
1085,-1477,-140,168,-518,-798
1064,-1378,-49,206,-621,-638
940,-1270,66,206,-721,-506
819,-1161,159,159,-777,-443
768,-1064,201,60,-797,-431
835,-1004,209,-79,-795,-463
1065,-1029,177,-244,-711,-530
1290,-1084,99,-387,-575,-607
1442,-1114,42,-465,-420,-671
1505,-1182,-32,-513,-255,-710
1479,-1216,-88,-519,-201,-652
1483,-1171,-69,-505,-221,-536
1439,-1125,-17,-527,-273,-380
1314,-1089,-13,-592,-348,-218
1268,-1088,-45,-680,-421,-102
1237,-1151,-122,-790,-461,-21
1156,-1290,-198,-877,-426,-10
1156,-1381,-234,-904,-329,-108
1380,-1339,-146,-908,-175,-262
1637,-1310,-62,-973,78,-388
1686,-1385,-121,-1078,321,-440
1610,-1436,-197,-1114,341,-408
1664,-1361,-202,-1109,203,-327
1773,-1262,-217,-1153,92,-186
1795,-1267,-295,-1249,96,13
1713,-1388,-432,-1345,135,214
1627,-1494,-509,-1377,142,384
1568,-1554,-494,-1379,150,513
1449,-1569,-483,-1392,186,598
1305,-1584,-515,-1424,273,595
1254,-1609,-604,-1467,387,522
1234,-1654,-739,-1495,511,453
1175,-1706,-857,-1481,581,434
1081,-1734,-931,-1432,593,465
997,-1748,-971,-1385,559,536
921,-1775,-978,-1353,494,621
757,-1880,-978,-1329,455,716
564,-1953,-938,-1278,387,811
431,-1952,-870,-1217,277,851
423,-1858,-760,-1178,181,844
416,-1825,-736,-1241,198,806
367,-1899,-831,-1321,247,759
434,-1906,-918,-1312,225,748
593,-1877,-923,-1301,197,774
538,-1895,-964,-1315,235,815
379,-1932,-1061,-1307,272,822
344,-1923,-1098,-1248,226,795
328,-1910,-1101,-1188,172,789
247,-1899,-1124,-1153,155,787
187,-1875,-1131,-1131,148,776
166,-1832,-1095,-1135,151,752
122,-1829,-1088,-1174,160,730
69,-1815,-1053,-1206,143,696
60,-1817,-1033,-1244,130,618
91,-1867,-1045,-1284,117,529
89,-1951,-1083,-1301,58,491
49,-2017,-1116,-1288,-46,492
4,-2055,-1147,-1259,-164,499
-35,-2081,-1175,-1227,-245,474
-59,-2116,-1208,-1204,-276,391
-71,-2168,-1257,-1176,-275,262
-75,-2252,-1349,-1136,-261,121
15,-2310,-1439,-1065,-306,28
92,-2340,-1482,-977,-415,30
114,-2360,-1505,-899,-520,90
88,-2376,-1526,-824,-597,144
-13,-2390,-1516,-734,-667,166
-125,-2381,-1487,-634,-716,156
-227,-2332,-1434,-547,-770,115
-322,-2317,-1395,-500,-812,31
-342,-2342,-1407,-465,-833,-88
-316,-2345,-1434,-400,-903,-196
-344,-2308,-1419,-320,-1010,-256
-395,-2269,-1425,-261,-1081,-299
-391,-2237,-1434,-211,-1176,-322
-311,-2146,-1419,-155,-1321,-328
-60,-2066,-1403,-130,-1397,-361
312,-2025,-1407,-132,-1367,-421
658,-2022,-1415,-132,-1276,-473
878,-2057,-1433,-86,-1150,-510
1054,-2092,-1417,-5,-1062,-508
1146,-2113,-1371,100,-1036,-453
1155,-2136,-1381,177,-1009,-382
1100,-2147,-1432,258,-1016,-249
1024,-2175,-1461,316,-1038,-115
970,-2205,-1534,358,-1018,-40
855,-2221,-1582,425,-1014,25
695,-2187,-1589,514,-985,54
646,-2095,-1549,575,-866,-7
643,-2072,-1535,593,-674,-135
715,-2121,-1582,598,-484,-282
838,-2142,-1598,657,-369,-331
880,-2141,-1548,736,-366,-248
845,-2093,-1474,803,-400,-132
795,-2059,-1453,826,-381,-83
771,-2039,-1475,830,-323,-95
736,-2053,-1513,848,-237,-142
718,-2033,-1554,886,-166,-186
743,-1995,-1560,943,-105,-228
799,-1990,-1523,992,-13,-259
812,-1983,-1502,1041,57,-241
780,-1980,-1436,1109,66,-206
817,-1915,-1321,1161,80,-192
818,-1853,-1239,1172,135,-168
730,-1847,-1243,1144,227,-151
666,-1859,-1274,1126,297,-166
696,-1822,-1266,1128,325,-174
793,-1795,-1217,1117,370,-178
793,-1802,-1196,1104,432,-156
792,-1769,-1161,1116,470,-152
893,-1766,-1123,1118,530,-160
977,-1772,-1124,1116,584,-127
987,-1750,-1101,1135,598,-56
917,-1749,-1086,1142,622,22
865,-1716,-1049,1143,639,92
833,-1702,-969,1118,676,138
765,-1715,-923,1070,740,175
691,-1694,-871,1035,780,178
637,-1726,-820,999,818,146
585,-1727,-807,960,843,128
573,-1717,-806,927,856,110
544,-1758,-879,890,879,101
561,-1786,-939,878,894,93
614,-1805,-951,886,920,80
616,-1809,-925,897,927,111
620,-1754,-826,901,916,159
642,-1741,-728,859,973,156
631,-1799,-719,795,1070,133
539,-1863,-706,768,1119,131
461,-1887,-653,761,1104,155
403,-1867,-598,746,1028,214
316,-1864,-565,707,986,264
235,-1936,-600,649,986,267
182,-2036,-675,629,988,235
79,-2154,-719,657,993,199
-65,-2235,-721,713,947,192
-179,-2231,-666,778,851,185
-202,-2196,-571,822,777,131
-220,-2189,-542,822,770,51
-228,-2193,-556,828,738,-28
-192,-2164,-518,864,678,-95
-144,-2086,-417,891,626,-133
-144,-2019,-290,885,591,-163
-203,-1983,-187,856,530,-187
-240,-1936,-101,807,436,-190
-267,-1904,-28,731,322,-166
-312,-1910,-51,632,210,-162
-338,-1984,-202,560,143,-210
-301,-2047,-356,557,97,-277
-175,-2069,-421,616,51,-341
-47,-2073,-416,694,28,-377
-43,-2046,-386,789,13,-383
-61,-1955,-275,885,-53,-376
-29,-1837,-113,916,-121,-365
-99,-1800,-20,862,-164,-327
-168,-1751,24,827,-250,-324
-108,-1708,52,781,-299,-392
-20,-1691,48,712,-327,-445
13,-1707,31,651,-367,-463
49,-1717,3,591,-419,-475
60,-1746,-47,535,-458,-486
78,-1774,-100,508,-481,-509
179,-1766,-135,506,-484,-546
256,-1751,-126,523,-495,-564
314,-1733,-89,540,-503,-563
396,-1708,-44,534,-496,-559
455,-1702,-3,527,-531,-535
490,-1661,45,520,-585,-496
494,-1621,75,484,-614,-458
409,-1642,38,421,-621,-433
359,-1631,8,428,-650,-489
392,-1552,38,439,-702,-538
442,-1506,71,399,-710,-543
440,-1489,74,340,-710,-551
402,-1490,72,302,-734,-575
446,-1461,77,284,-765,-607
525,-1399,107,261,-794,-618
567,-1346,157,213,-816,-600
624,-1322,182,144,-828,-602
745,-1289,185,71,-817,-643
892,-1251,195,2,-794,-689
944,-1272,125,-73,-746,-704
911,-1313,30,-130,-721,-703
893,-1328,-22,-144,-727,-703
928,-1316,-56,-144,-764,-677
987,-1278,-54,-158,-807,-618
1013,-1269,-81,-190,-818,-557
1079,-1261,-80,-225,-798,-544
1236,-1226,-39,-257,-733,-599
1435,-1173,-3,-307,-625,-667
1593,-1145,-4,-389,-482,-694
1675,-1147,-51,-468,-352,-675
1721,-1156,-88,-517,-289,-607
1748,-1134,-70,-543,-239,-529
1751,-1132,-54,-580,-183,-460
1749,-1179,-73,-637,-159,-372
1743,-1235,-93,-693,-173,-254
1736,-1289,-132,-754,-189,-123
1773,-1323,-172,-817,-197,-4
1780,-1349,-226,-874,-175,102
1687,-1374,-305,-923,-124,186
1594,-1380,-365,-965,-25,210
1551,-1376,-400,-1005,88,196
1496,-1403,-412,-1047,179,204
1466,-1500,-388,-1093,259,234
1428,-1621,-376,-1110,285,303
1350,-1679,-345,-1083,246,398
1298,-1650,-266,-1053,197,455
1235,-1615,-222,-1073,202,478
1146,-1595,-250,-1135,257,461
1063,-1601,-344,-1203,333,394
1013,-1613,-468,-1259,433,305
1001,-1628,-589,-1280,514,222
1022,-1629,-680,-1257,543,179
1136,-1590,-702,-1217,546,194
1175,-1595,-668,-1196,524,285
1096,-1666,-638,-1191,446,445
1041,-1696,-566,-1187,307,611
1054,-1671,-471,-1224,212,739
971,-1707,-485,-1311,247,773
880,-1754,-579,-1395,362,681
934,-1784,-684,-1445,513,523
1042,-1827,-826,-1470,613,442
1086,-1846,-940,-1449,617,496
1031,-1838,-1018,-1387,598,592
924,-1845,-1078,-1309,586,670
805,-1832,-1107,-1217,539,746
714,-1810,-1083,-1149,464,815
618,-1845,-1079,-1125,398,864
488,-1887,-1080,-1127,341,912
365,-1934,-1083,-1118,313,904
316,-1970,-1074,-1081,328,777
350,-1985,-1090,-1027,381,574
392,-2014,-1122,-950,401,431
430,-1999,-1125,-863,331,399
418,-1938,-1055,-794,211,450
342,-1895,-978,-777,118,526
223,-1901,-964,-797,54,582
31,-1944,-970,-800,-34,606
-74,-1950,-942,-798,-107,563
-98,-1927,-893,-812,-95,480
-163,-1951,-874,-875,-44,401
-276,-2012,-929,-939,-34,322
-316,-2022,-970,-967,-121,232
-229,-2045,-1019,-987,-193,118
-75,-2094,-1113,-996,-247,16
100,-2112,-1151,-955,-325,-37
231,-2091,-1141,-878,-411,-43
318,-2068,-1114,-814,-480,-21
347,-2072,-1082,-778,-511,0
331,-2094,-1075,-756,-535,21
279,-2138,-1100,-741,-598,60
230,-2170,-1122,-723,-686,122
150,-2192,-1128,-700,-746,173
0,-2246,-1154,-676,-785,172
-99,-2295,-1214,-634,-840,122
-139,-2322,-1279,-572,-921,79
-194,-2329,-1339,-507,-1002,70
-272,-2319,-1364,-431,-1060,18
-257,-2231,-1352,-342,-1073,-113
-107,-2178,-1329,-289,-1053,-263
239,-2170,-1298,-262,-1005,-413
502,-2200,-1322,-216,-1006,-453
624,-2191,-1329,-110,-1071,-381
703,-2141,-1255,3,-1152,-273
669,-2088,-1147,67,-1238,-148
579,-2073,-1115,87,-1281,-89
541,-2096,-1151,88,-1279,-125
544,-2122,-1225,95,-1267,-171
489,-2146,-1319,105,-1233,-207
451,-2172,-1425,125,-1174,-285
523,-2195,-1490,169,-1091,-401
636,-2196,-1514,230,-1019,-488
762,-2188,-1545,292,-961,-525
874,-2195,-1576,365,-944,-500
968,-2185,-1566,450,-936,-438
1039,-2190,-1539,526,-910,-366
1037,-2202,-1517,596,-910,-260
998,-2155,-1477,660,-942,-149
933,-2126,-1463,707,-941,-102
915,-2057,-1443,747,-857,-176
935,-1998,-1409,770,-633,-365
1076,-1992,-1411,770,-374,-575
1268,-1988,-1454,800,-249,-618
1398,-1926,-1444,848,-256,-464
1388,-1914,-1373,869,-252,-282
1323,-1924,-1360,869,-205,-211
1301,-1860,-1309,957,-160,-104
1256,-1878,-1276,963,-82,-27
1159,-1892,-1327,949,-8,52
1076,-1882,-1335,969,27,112
1052,-1844,-1331,986,114,108
999,-1805,-1313,1002,215,96
944,-1767,-1274,998,314,84
938,-1746,-1254,989,401,85
947,-1735,-1204,989,437,135
990,-1704,-1115,976,482,205
928,-1679,-1054,949,522,276
823,-1650,-1051,925,561,305
817,-1646,-1073,897,664,260
835,-1626,-1096,874,778,227
827,-1603,-1102,858,858,219
916,-1569,-1084,835,930,211
1005,-1547,-1058,809,982,250
989,-1551,-1031,776,1014,347
985,-1542,-970,749,1032,449
948,-1524,-860,721,1050,551
834,-1515,-772,666,1101,619
696,-1541,-735,600,1148,618
672,-1544,-693,526,1183,569
704,-1593,-719,419,1252,516
672,-1761,-899,305,1311,517
523,-1959,-1087,292,1293,591
301,-2117,-1191,379,1217,676
117,-2161,-1140,522,1111,723
-17,-2122,-980,651,1049,688
-115,-2083,-802,705,1048,578
-175,-2084,-720,696,1075,408
-157,-2117,-698,665,1083,233
-54,-2160,-731,632,1093,96
91,-2180,-724,625,1084,19
139,-2196,-684,624,1084,4
66,-2210,-647,629,1053,17
21,-2226,-617,640,995,14
-21,-2244,-606,656,911,20
-77,-2226,-565,685,819,13
-106,-2208,-549,700,744,-20
-93,-2211,-563,713,692,-74
-78,-2216,-572,735,663,-128
-89,-2225,-581,766,635,-161
-164,-2218,-567,815,559,-172
-193,-2160,-515,858,461,-182
-116,-2103,-424,864,402,-196
-66,-2101,-369,839,383,-211
-117,-2110,-350,833,338,-219
-140,-2065,-316,846,253,-231
-97,-1990,-245,836,189,-255
-103,-1966,-210,792,206,-308
-190,-1965,-213,760,245,-391
-200,-1944,-198,751,221,-469
-186,-1908,-147,755,131,-468
-225,-1838,-77,723,-2,-413
-241,-1811,-68,647,-97,-383
-243,-1834,-85,572,-168,-378
-197,-1831,-132,529,-241,-396
-145,-1859,-177,506,-295,-417
-94,-1869,-219,514,-330,-457
-40,-1857,-227,555,-359,-505
-5,-1862,-253,603,-385,-540
35,-1867,-281,668,-416,-556
131,-1829,-233,735,-485,-531
208,-1768,-146,769,-567,-479
216,-1717,-73,752,-607,-454
192,-1709,-76,700,-575,-500
190,-1707,-102,670,-556,-579
212,-1678,-100,663,-558,-646
244,-1666,-103,640,-557,-682
269,-1658,-105,627,-598,-681
359,-1616,-77,621,-635,-677
490,-1573,-31,604,-644,-675
524,-1566,-21,570,-654,-654
482,-1560,-37,553,-697,-620
491,-1506,-15,556,-771,-594
526,-1444,29,540,-848,-542
437,-1406,38,497,-904,-467
285,-1358,20,451,-938,-455
232,-1299,27,420,-962,-526
414,-1226,76,364,-911,-669
625,-1187,80,256,-797,-819
731,-1173,26,176,-752,-899
970,-1120,18,128,-732,-928
1172,-1147,27,59,-691,-855
1109,-1194,-3,14,-722,-672
990,-1153,-7,15,-852,-503
990,-1040,100,19,-955,-412
1053,-922,219,-55,-942,-390
1159,-883,250,-200,-856,-450
1261,-925,133,-362,-737,-546
1290,-1010,-32,-481,-664,-605
1422,-1025,-147,-549,-632,-648
1721,-1047,-215,-617,-515,-671
1862,-1143,-305,-669,-395,-589
1801,-1226,-298,-658,-353,-420
1640,-1219,-182,-616,-394,-237
1602,-1145,-47,-640,-407,-128
1644,-1115,26,-736,-407,-55
1648,-1145,7,-863,-405,9
1623,-1203,-110,-997,-369,49
1559,-1290,-279,-1109,-319,75
1492,-1413,-419,-1176,-264,100
1436,-1537,-513,-1211,-202,135
1352,-1608,-550,-1199,-192,188
1333,-1634,-521,-1178,-184,220
1405,-1639,-497,-1181,-134,222
1471,-1629,-495,-1198,-83,226
1471,-1616,-533,-1222,-30,231
1461,-1592,-599,-1240,31,226
1503,-1552,-629,-1247,106,218
1541,-1502,-625,-1258,203,216
1521,-1489,-633,-1279,287,231
1430,-1504,-643,-1297,325,295
1367,-1588,-649,-1333,341,382
1304,-1728,-638,-1365,335,492
1208,-1774,-607,-1360,298,586
1205,-1729,-546,-1356,299,590
1222,-1724,-572,-1419,369,541
1177,-1784,-705,-1498,459,507
1143,-1850,-869,-1522,544,451
1193,-1879,-1006,-1477,589,411
1194,-1874,-1109,-1384,604,417
1152,-1841,-1162,-1289,613,450
1087,-1822,-1204,-1208,620,506
1036,-1792,-1192,-1136,607,584
931,-1765,-1133,-1089,570,707
751,-1753,-1068,-1072,498,852
620,-1738,-1002,-1071,417,932
538,-1731,-938,-1090,364,953
450,-1731,-933,-1122,340,945
369,-1713,-937,-1151,347,896
290,-1726,-971,-1188,420,788
241,-1788,-1072,-1207,505,647
270,-1837,-1181,-1175,521,537
292,-1860,-1210,-1101,468,515
294,-1828,-1186,-1035,380,559
254,-1791,-1146,-997,300,622
154,-1810,-1103,-980,239,669
28,-1862,-1067,-965,165,684
-29,-1898,-1000,-940,63,684
-60,-1882,-910,-939,-35,676
-144,-1893,-885,-994,-87,630
-214,-1972,-959,-1072,-92,513
-173,-2047,-1067,-1114,-94,350
-55,-2124,-1175,-1108,-120,234
16,-2166,-1252,-1056,-197,222
38,-2165,-1265,-974,-294,253
25,-2138,-1236,-897,-382,280
-22,-2104,-1183,-827,-467,276
-44,-2052,-1122,-785,-520,226
-72,-2028,-1095,-779,-557,158
-141,-2032,-1106,-794,-605,100
-185,-2063,-1166,-815,-662,38
-189,-2095,-1238,-828,-748,-9
-196,-2131,-1308,-811,-830,-55
-93,-2179,-1375,-770,-884,-146
159,-2257,-1448,-710,-892,-256
434,-2347,-1485,-611,-907,-310
578,-2376,-1483,-483,-974,-288
643,-2368,-1458,-360,-1014,-234
662,-2360,-1427,-263,-1045,-184
668,-2353,-1437,-188,-1068,-167
665,-2370,-1472,-127,-1065,-187
592,-2421,-1559,-55,-1054,-212
505,-2466,-1639,44,-1067,-230
457,-2459,-1667,156,-1111,-228
450,-2454,-1681,256,-1154,-195
416,-2448,-1694,349,-1185,-136
259,-2428,-1683,456,-1239,-87
175,-2335,-1617,568,-1290,-120
197,-2201,-1532,646,-1280,-240
310,-2097,-1448,668,-1175,-419
477,-2072,-1429,651,-965,-631
599,-2117,-1492,665,-802,-787
702,-2116,-1518,748,-795,-798
792,-2029,-1473,839,-888,-680
914,-1923,-1387,871,-938,-540
962,-1919,-1348,834,-863,-475
934,-1974,-1405,832,-770,-481
1050,-1958,-1425,898,-728,-489
1211,-1862,-1377,968,-698,-433
1240,-1849,-1402,956,-608,-338
1200,-1871,-1437,958,-513,-280
1171,-1842,-1431,1010,-367,-311
1155,-1830,-1431,1031,-190,-367
1136,-1862,-1449,1047,-90,-347
1167,-1824,-1395,1081,-95,-247
1188,-1785,-1351,1098,-95,-131
1102,-1809,-1389,1094,-70,-5
1057,-1803,-1414,1113,-80,83
1076,-1747,-1380,1137,-68,135
1007,-1720,-1336,1122,30,169
948,-1711,-1324,1089,173,148
911,-1741,-1330,1058,317,115
861,-1758,-1339,1051,401,119
936,-1716,-1269,1069,445,145
1061,-1650,-1173,1055,508,210
1075,-1614,-1134,1005,572,310
1044,-1600,-1116,977,588,383
1098,-1521,-1061,976,599,403
1172,-1439,-986,950,630,430
1198,-1402,-958,897,678,483
1155,-1410,-943,844,718,562
1007,-1430,-946,797,774,623
920,-1457,-932,755,898,580
851,-1500,-928,709,1080,452
776,-1594,-966,663,1289,303
761,-1671,-1000,631,1413,211
789,-1702,-1011,618,1427,240
758,-1807,-1041,588,1398,372
622,-1923,-1074,597,1302,538
447,-1969,-1016,661,1179,655
231,-1978,-935,706,1107,698
-1,-2035,-909,711,1066,678
-180,-2107,-883,709,1048,586
-310,-2153,-864,706,1067,426
-361,-2209,-865,698,1103,222
-247,-2268,-869,698,1143,22
-80,-2297,-854,724,1131,-75
-30,-2291,-776,774,1044,-54
-20,-2242,-656,819,949,-5
-33,-2206,-523,825,887,23
-81,-2217,-463,807,852,7
-99,-2205,-460,805,803,-30
-94,-2202,-453,807,723,-51
-122,-2181,-486,793,665,-85
-133,-2233,-571,782,680,-171
-86,-2284,-615,807,726,-266
-128,-2305,-623,864,738,-298
-198,-2240,-541,937,656,-272
-196,-2172,-426,967,589,-245
-214,-2136,-351,972,506,-220
-193,-2096,-295,982,451,-247
-133,-2053,-264,989,420,-304
-67,-1992,-228,993,380,-333
-29,-1952,-194,986,356,-342
-47,-1914,-166,969,325,-332
-95,-1864,-133,958,263,-320
-140,-1805,-73,941,200,-318
-244,-1776,-55,904,127,-310
-329,-1775,-71,857,23,-318
-326,-1779,-81,819,-99,-324
-329,-1760,-72,802,-229,-316
-342,-1699,-37,787,-336,-338
-273,-1634,11,749,-370,-423
-178,-1621,34,701,-337,-538
-123,-1625,27,665,-310,-646
-7,-1609,38,656,-307,-727
96,-1589,60,660,-332,-747
96,-1560,68,666,-421,-690
84,-1530,79,664,-538,-635
83,-1479,102,651,-650,-613
44,-1434,117,615,-723,-618
-20,-1410,93,552,-756,-669
-67,-1425,25,485,-758,-779
10,-1411,-13,440,-765,-906
197,-1358,-9,396,-762,-1023
462,-1296,12,339,-718,-1124
667,-1314,-17,278,-647,-1187
747,-1338,-84,268,-644,-1175
800,-1303,-96,308,-731,-1074
832,-1227,-29,343,-862,-911
764,-1143,62,338,-990,-743
606,-1065,144,299,-1070,-653
518,-995,187,214,-1090,-688
539,-961,187,96,-1092,-794
696,-981,159,-46,-1044,-942
983,-982,153,-175,-961,-1110
1339,-950,135,-288,-803,-1267
1591,-1006,55,-404,-627,-1332
1683,-1094,-36,-443,-522,-1279
1747,-1094,-93,-424,-553,-1105
1732,-1045,-53,-400,-648,-833
1647,-978,48,-419,-730,-588
1599,-934,127,-482,-778,-462
1617,-922,160,-582,-792,-429
1649,-948,130,-714,-727,-455
1601,-1052,13,-854,-608,-503
1521,-1143,-122,-937,-534,-557
1504,-1157,-198,-958,-490,-615
1642,-1093,-203,-972,-454,-646
1802,-1057,-200,-1008,-390,-633
1901,-1045,-203,-1064,-342,-552
1965,-1071,-202,-1142,-316,-407
1999,-1170,-245,-1237,-326,-198
1991,-1294,-300,-1298,-374,41
1937,-1381,-312,-1334,-415,239
1867,-1439,-338,-1368,-354,333
1794,-1477,-405,-1412,-218,315
1769,-1520,-514,-1451,-62,237
1753,-1608,-691,-1474,83,190
1770,-1656,-848,-1457,184,203
1775,-1673,-939,-1392,234,272
1731,-1680,-1003,-1309,272,375
1675,-1626,-987,-1221,283,490
1603,-1540,-874,-1156,289,611
1501,-1501,-744,-1155,353,705
1400,-1523,-675,-1197,424,770
1263,-1578,-633,-1228,462,828
1097,-1584,-611,-1245,446,877
1021,-1544,-574,-1268,409,886
981,-1479,-542,-1328,409,856
908,-1459,-580,-1423,448,801
899,-1483,-713,-1521,511,716
972,-1558,-909,-1592,559,661
997,-1646,-1079,-1592,566,683
992,-1675,-1154,-1533,516,759
946,-1643,-1126,-1462,439,860
841,-1646,-1076,-1436,410,965
689,-1716,-1068,-1446,375,1063
543,-1762,-1055,-1429,290,1124
451,-1771,-1037,-1413,221,1126
411,-1757,-1021,-1421,205,1089
346,-1784,-1049,-1445,244,1030
288,-1801,-1093,-1449,289,936
323,-1774,-1092,-1415,315,827
366,-1699,-1045,-1378,305,793
319,-1623,-986,-1356,282,809
232,-1575,-949,-1346,235,815
108,-1600,-1016,-1354,143,805
59,-1669,-1116,-1364,1,800
83,-1729,-1222,-1375,-175,830
63,-1830,-1348,-1392,-310,886
7,-1962,-1458,-1372,-411,905
-8,-1999,-1464,-1294,-490,864
-26,-2002,-1428,-1224,-479,767
-59,-2000,-1394,-1176,-429,631
-66,-1977,-1353,-1140,-383,483
-44,-1959,-1326,-1119,-370,376
-46,-1966,-1342,-1110,-424,331
-87,-2005,-1403,-1098,-542,321
-147,-2050,-1481,-1078,-670,316
-227,-2122,-1574,-1041,-774,287
-254,-2215,-1664,-979,-882,238
-238,-2259,-1709,-887,-1016,211
-253,-2264,-1737,-791,-1146,212
-248,-2293,-1764,-723,-1211,182
-167,-2322,-1754,-651,-1211,66
-48,-2348,-1773,-573,-1184,-92
87,-2354,-1780,-465,-1182,-212
138,-2332,-1749,-350,-1189,-267
144,-2322,-1759,-254,-1223,-287
245,-2299,-1714,-150,-1292,-309
410,-2270,-1669,-64,-1355,-310
521,-2313,-1688,-10,-1393,-281
