ax,ay,az,gx,gy,gz
-1550,-1812,-264,-1032,583,986
-1547,-1884,-213,-1110,548,922
-1612,-1982,-323,-1203,618,854
-1662,-2040,-411,-1221,592,808
-1682,-2112,-398,-1203,377,808
-1720,-2182,-378,-1195,129,842
-1818,-2255,-418,-1215,-30,849
-1950,-2343,-466,-1230,-96,795
-1989,-2424,-514,-1231,-157,646
-1938,-2490,-631,-1257,-162,443
-1870,-2567,-779,-1255,-118,261
-1772,-2643,-813,-1174,-197,132
-1669,-2704,-765,-1073,-391,44
-1572,-2729,-697,-1000,-531,-21
-1554,-2802,-684,-963,-645,-59
-1582,-2883,-790,-946,-780,-75
-1603,-2965,-952,-903,-935,-124
-1536,-3000,-1061,-828,-1079,-235
-1454,-3031,-1125,-734,-1122,-402
-1409,-3040,-1172,-645,-1114,-566
-1267,-3026,-1222,-565,-1134,-724
-1100,-2994,-1273,-473,-1154,-857
-1013,-2947,-1286,-358,-1212,-903
-1017,-2902,-1202,-232,-1349,-910
-948,-2860,-1147,-168,-1490,-976
-833,-2834,-1186,-140,-1562,-1052
-770,-2821,-1235,-86,-1578,-1135
-684,-2788,-1272,-38,-1589,-1230
-584,-2768,-1357,9,-1557,-1326
-404,-2769,-1505,75,-1520,-1421
-244,-2786,-1633,204,-1566,-1458
-159,-2754,-1625,377,-1623,-1441
-16,-2724,-1556,519,-1637,-1441
142,-2684,-1488,622,-1602,-1449
229,-2669,-1496,698,-1520,-1440
354,-2640,-1525,789,-1475,-1438
542,-2588,-1479,902,-1418,-1458
673,-2540,-1448,964,-1293,-1450
801,-2507,-1455,1014,-1155,-1417
959,-2474,-1478,1081,-1032,-1383
1108,-2414,-1458,1181,-881,-1315
1214,-2355,-1404,1287,-819,-1179
1312,-2286,-1283,1363,-825,-995
1411,-2200,-1179,1407,-767,-818
1480,-2145,-1151,1408,-711,-645
1464,-2088,-1155,1395,-617,-493
1381,-2023,-1128,1379,-483,-394
1307,-1945,-1063,1365,-343,-342
1306,-1908,-1034,1334,-178,-306
1335,-1886,-1087,1314,20,-261
1275,-1833,-1089,1334,168,-173
1160,-1762,-944,1358,246,-83
1072,-1729,-818,1328,351,-43
1080,-1714,-806,1252,490,-38
1110,-1722,-768,1191,680,-50
1049,-1732,-745,1128,901,-26
1009,-1733,-715,1081,1053,50
1012,-1727,-643,1027,1086,159
959,-1751,-599,930,1130,292
850,-1798,-618,837,1207,434
734,-1820,-667,795,1244,557
611,-1825,-671,785,1189,699
502,-1814,-547,785,1142,816
408,-1841,-496,737,1100,907
264,-1876,-506,685,1103,990
140,-1906,-551,659,1183,1023
2,-1927,-527,664,1213,1026
-172,-1948,-455,664,1301,996
-341,-1998,-370,663,1420,935
-515,-2006,-278,656,1501,845
-683,-2023,-187,621,1621,709
-809,-2066,-147,547,1687,586
-891,-2137,-119,486,1658,511
-998,-2213,-84,464,1620,463
-1074,-2241,-131,433,1592,415
-1144,-2281,-217,438,1570,388
-1262,-2295,-172,528,1530,367
-1334,-2266,-32,584,1459,290
-1376,-2251,4,560,1577,179
-1475,-2228,-27,542,1649,153
-1605,-2183,-78,563,1516,209
-1741,-2115,-92,594,1276,275
-1875,-2065,-38,617,1033,342
-1995,-2024,92,629,841,363
-2114,-2027,76,610,687,339
-2225,-2020,-57,644,486,296
-2258,-1941,-68,750,332,169
-2201,-1862,42,840,279,-13
-2201,-1817,152,870,248,-178
-2205,-1781,208,843,244,-358
-2014,-1709,223,800,215,-546
-1841,-1664,246,789,177,-645
-1833,-1636,263,792,95,-672
-1735,-1617,225,784,-23,-731
-1550,-1616,197,817,-197,-782
-1382,-1540,234,860,-326,-803
-1233,-1470,293,858,-360,-813
-1115,-1457,305,815,-405,-791
-1054,-1400,297,787,-523,-729
-967,-1340,354,772,-756,-649
-916,-1308,451,721,-925,-601
-934,-1291,470,629,-990,-594
-913,-1276,438,553,-1135,-604
-816,-1226,466,496,-1217,-668
-773,-1219,487,414,-1167,-748
-739,-1239,401,339,-1132,-822
-662,-1217,352,322,-1136,-895
-517,-1141,362,310,-1146,-948
-350,-1130,396,267,-1267,-952
-281,-1167,349,194,-1369,-949
-199,-1170,262,134,-1318,-1007
-69,-1143,214,114,-1296,-1069
-6,-1132,231,107,-1329,-1088
31,-1114,257,86,-1268,-1145
131,-1089,275,49,-1178,-1232
224,-1059,273,-9,-1101,-1291
319,-1048,274,-70,-1062,-1317
454,-1044,239,-126,-1098,-1301
616,-1046,158,-175,-1164,-1262
762,-1016,88,-212,-1233,-1188
831,-1014,64,-242,-1290,-1088
825,-1044,60,-290,-1311,-1017
908,-1077,28,-338,-1245,-1006
980,-1056,91,-358,-1193,-965
939,-1070,117,-421,-1237,-860
930,-1153,71,-496,-1311,-796
1001,-1173,62,-525,-1304,-823
1122,-1158,-5,-588,-1163,-894
1234,-1197,-125,-649,-1031,-914
1319,-1244,-154,-653,-962,-920
1402,-1276,-115,-658,-820,-946
1513,-1305,-124,-690,-696,-926
1702,-1334,-163,-720,-682,-837
1819,-1397,-120,-738,-733,-668
1867,-1466,-125,-770,-724,-513
1928,-1514,-172,-794,-667,-388
1935,-1568,-155,-801,-625,-240
1900,-1613,-156,-828,-529,-122
1841,-1685,-166,-860,-416,-42
1840,-1736,-160,-885,-246,-37
1935,-1805,-256,-931,-5,-58
2023,-1892,-410,-941,162,4
2112,-1898,-407,-869,267,117
2084,-1908,-350,-824,342,275
2025,-1923,-325,-822,354,434
2069,-1889,-267,-832,466,501
2072,-1907,-286,-883,678,591
1998,-1944,-340,-901,771,745
1908,-1953,-430,-895,826,872
1779,-1941,-507,-883,989,962
1668,-1889,-552,-862,1122,1032
1603,-1874,-622,-863,1213,1137
1498,-1910,-683,-850,1234,1315
1263,-1926,-683,-811,1149,1509
974,-1923,-685,-801,1138,1615
729,-1935,-779,-819,1214,1617
595,-1875,-839,-798,1300,1583
500,-1813,-871,-771,1352,1551
354,-1807,-921,-751,1429,1549
233,-1773,-865,-689,1443,1577
93,-1730,-758,-642,1403,1590
-34,-1698,-707,-645,1441,1577
-124,-1684,-668,-653,1447,1576
-235,-1629,-579,-660,1432,1595
-379,-1576,-502,-697,1450,1603
-540,-1514,-488,-771,1395,1623
-743,-1470,-487,-842,1252,1649
-925,-1490,-537,-894,1175,1608
-1031,-1513,-571,-910,1206,1495
-1101,-1563,-534,-911,1259,1340
-1117,-1604,-527,-935,1311,1196
-1117,-1636,-549,-958,1291,1107
-1153,-1614,-563,-971,1194,1085
-1247,-1593,-582,-982,1128,1077
-1345,-1566,-544,-991,1037,1053
-1477,-1570,-512,-1041,919,1011
-1586,-1641,-543,-1112,878,931
-1688,-1700,-553,-1145,813,826
-1729,-1791,-582,-1181,723,695
-1699,-1828,-574,-1187,661,552
-1665,-1846,-556,-1200,583,460
-1637,-1889,-556,-1226,464,411
-1623,-1908,-594,-1253,277,404
-1641,-1936,-617,-1277,76,417
-1747,-2031,-627,-1290,-126,422
-1820,-2095,-622,-1281,-265,348
-1807,-2165,-625,-1278,-322,192
-1808,-2244,-705,-1296,-341,38
-1759,-2293,-790,-1294,-365,-111
-1628,-2397,-854,-1287,-401,-245
-1544,-2512,-901,-1264,-491,-306
-1472,-2576,-961,-1233,-630,-350
-1410,-2618,-1032,-1203,-743,-381
-1369,-2671,-1149,-1153,-859,-404
-1275,-2712,-1201,-1066,-985,-478
-1218,-2770,-1191,-978,-1079,-557
-1178,-2813,-1168,-898,-1133,-641
-1103,-2852,-1203,-837,-1189,-742
-1045,-2871,-1250,-762,-1243,-816
-979,-2903,-1266,-688,-1339,-866
-867,-2932,-1344,-633,-1406,-958
-778,-2935,-1459,-548,-1440,-1030
-746,-2903,-1501,-415,-1536,-1060
-669,-2850,-1447,-281,-1611,-1142
-591,-2778,-1421,-190,-1592,-1242
-525,-2738,-1458,-130,-1609,-1313
-431,-2683,-1485,-45,-1638,-1382
-390,-2619,-1478,38,-1604,-1443
-330,-2581,-1506,99,-1614,-1516
-181,-2564,-1582,158,-1583,-1617
54,-2554,-1700,242,-1520,-1712
337,-2557,-1791,363,-1477,-1763
590,-2512,-1744,523,-1454,-1718
734,-2475,-1624,668,-1462,-1575
828,-2439,-1525,770,-1474,-1425
894,-2405,-1464,831,-1442,-1296
957,-2389,-1427,869,-1418,-1180
1062,-2364,-1405,912,-1412,-1075
1121,-2347,-1377,959,-1401,-948
1141,-2353,-1382,1005,-1336,-847
1159,-2342,-1433,1057,-1188,-812
1179,-2345,-1480,1115,-972,-796
1259,-2338,-1507,1188,-802,-770
1330,-2289,-1466,1272,-674,-721
1376,-2222,-1399,1325,-558,-633
1432,-2171,-1316,1354,-441,-525
1512,-2144,-1270,1359,-337,-409
1579,-2100,-1237,1344,-254,-262
1571,-2056,-1215,1325,-171,-90
1521,-1999,-1196,1314,-150,92
1391,-1954,-1177,1304,-128,257
1213,-1950,-1198,1291,15,327
1101,-1929,-1245,1295,248,306
1000,-1905,-1216,1338,415,286
951,-1876,-1119,1371,545,266
920,-1855,-1051,1357,694,255
892,-1844,-978,1332,800,279
883,-1840,-894,1303,874,324
867,-1817,-829,1258,931,397
815,-1801,-757,1206,952,506
798,-1772,-688,1145,923,643
681,-1777,-700,1076,867,792
404,-1832,-758,1023,906,876
227,-1872,-759,1019,1017,847
203,-1893,-745,1018,1067,780
160,-1924,-711,1015,1123,761
22,-1943,-625,1011,1175,766
-139,-1961,-574,986,1224,744
-165,-1955,-519,967,1208,735
-133,-1936,-397,950,1116,778
-194,-1936,-260,912,999,876
-374,-1970,-158,859,947,924
-626,-2045,-124,790,1047,815
-800,-2109,-142,714,1302,558
-869,-2156,-189,682,1523,319
-910,-2172,-155,702,1609,169
-884,-2188,-107,699,1637,85
-814,-2193,-116,700,1545,117
-824,-2161,-95,722,1334,247
-1039,-2135,2,724,1130,363
-1285,-2134,76,684,1043,343
-1385,-2099,93,630,1107,201
-1399,-2093,15,568,1134,96
-1469,-2106,-81,559,1009,76
-1610,-2091,-81,610,887,62
-1735,-2073,-48,665,785,5
-1825,-2047,-100,708,731,-98
-1901,-1999,-99,796,715,-210
-1913,-1918,59,901,627,-331
-1901,-1844,159,926,525,-433
-1847,-1795,223,913,414,-510
-1711,-1725,282,886,242,-584
-1541,-1674,317,826,113,-646
-1458,-1685,303,762,82,-704
-1383,-1686,195,737,58,-740
-1320,-1633,201,781,-44,-758
-1229,-1568,272,827,-192,-768
-1109,-1497,363,833,-329,-753
-970,-1424,472,791,-456,-731
-829,-1382,515,701,-544,-687
-778,-1372,545,617,-658,-626
-782,-1371,521,502,-744,-605
-728,-1402,390,397,-728,-660
-634,-1401,301,359,-732,-720
-519,-1377,260,363,-771,-750
-459,-1348,241,390,-780,-745
-468,-1304,293,427,-812,-728
-433,-1212,384,434,-911,-721
-386,-1176,483,383,-988,-740
-310,-1164,498,277,-983,-800
-227,-1150,432,181,-949,-867
-148,-1174,355,130,-900,-932
3,-1201,292,91,-878,-980
89,-1190,288,95,-928,-953
91,-1136,347,98,-1019,-896
140,-1107,431,47,-1096,-862
216,-1095,454,-58,-1142,-850
247,-1121,389,-172,-1102,-873
357,-1148,288,-267,-1055,-918
485,-1172,191,-324,-1005,-947
503,-1218,106,-334,-908,-945
533,-1226,135,-313,-831,-968
683,-1250,122,-350,-774,-1011
835,-1285,-2,-394,-724,-1008
846,-1271,-7,-360,-829,-881
799,-1225,85,-359,-1018,-754
772,-1235,83,-436,-1055,-719
808,-1243,76,-505,-985,-749
853,-1215,48,-580,-914,-786
894,-1218,-6,-664,-852,-817
1010,-1238,-7,-729,-786,-871
1125,-1226,10,-808,-674,-922
1226,-1266,14,-921,-518,-979
1322,-1340,6,-1037,-269,-1055
1321,-1421,-108,-1144,52,-1151
1401,-1510,-265,-1188,210,-1255
1563,-1546,-420,-1118,118,-1246
1722,-1508,-466,-969,-172,-1051
1837,-1494,-385,-832,-409,-756
1853,-1511,-246,-759,-479,-504
1877,-1554,-145,-803,-428,-337
1879,-1609,-136,-896,-341,-192
1897,-1720,-159,-972,-319,-75
1971,-1805,-170,-1009,-203,-14
2000,-1844,-191,-1039,-25,38
2029,-1868,-293,-1074,98,125
2018,-1929,-378,-1078,139,276
1956,-1969,-458,-1053,195,414
1878,-1960,-537,-1023,270,514
1800,-1995,-583,-981,436,567
1735,-2024,-636,-935,671,568
1664,-2005,-675,-902,891,560
1642,-1998,-674,-889,1052,602
1632,-2008,-731,-882,1082,713
1598,-1926,-776,-853,1013,891
1442,-1857,-762,-822,874,1159
1239,-1879,-774,-799,662,1443
993,-1867,-736,-746,555,1590
757,-1843,-704,-730,722,1599
592,-1833,-737,-736,898,1586
482,-1795,-786,-720,905,1595
306,-1762,-803,-684,936,1616
74,-1704,-730,-643,999,1619
-144,-1662,-606,-636,1015,1580
-265,-1640,-544,-683,1029,1492
-341,-1596,-552,-751,1060,1372
-428,-1589,-604,-805,1045,1283
-481,-1571,-618,-812,1010,1192
-443,-1519,-584,-801,1036,1079
-412,-1480,-514,-806,1060,1058
-449,-1422,-460,-866,1038,1138
-544,-1430,-470,-976,1003,1212
-662,-1474,-533,-1087,883,1259
-823,-1516,-553,-1158,749,1243
-1008,-1608,-560,-1220,782,1113
-1081,-1716,-589,-1271,947,884
-1092,-1795,-559,-1271,1052,684
-1106,-1792,-488,-1263,921,587
-1060,-1803,-432,-1294,688,567
-1042,-1813,-398,-1359,557,601
-1167,-1844,-530,-1464,458,656
-1316,-1923,-693,-1501,319,656
-1402,-1919,-619,-1447,139,564
-1435,-1954,-588,-1482,1,444
-1460,-2063,-673,-1563,-42,323
-1443,-2185,-797,-1603,-79,183
-1425,-2304,-824,-1580,-139,40
-1329,-2374,-827,-1558,-194,-107
-1191,-2480,-1009,-1559,-199,-224
-1132,-2586,-1188,-1476,-268,-241
-1059,-2624,-1134,-1338,-475,-224
-1043,-2675,-1133,-1274,-632,-206
-1108,-2762,-1231,-1230,-821,-170
-1136,-2836,-1316,-1143,-996,-223
-1115,-2881,-1421,-1037,-1017,-329
-1128,-2891,-1359,-879,-1060,-438
-1094,-2913,-1259,-766,-1146,-571
-1010,-2923,-1263,-702,-1191,-709
-900,-2921,-1372,-647,-1180,-854
-737,-2953,-1542,-549,-1231,-960
-591,-2921,-1564,-381,-1397,-1015
-499,-2883,-1525,-237,-1525,-1080
-345,-2831,-1508,-147,-1571,-1198
-172,-2799,-1554,-88,-1507,-1323
5,-2791,-1624,-7,-1409,-1407
176,-2764,-1623,118,-1350,-1451
325,-2722,-1598,227,-1346,-1436
402,-2711,-1606,319,-1362,-1385
465,-2711,-1673,400,-1349,-1328
581,-2734,-1770,501,-1336,-1294
705,-2703,-1763,640,-1345,-1248
772,-2668,-1724,753,-1354,-1171
785,-2655,-1712,851,-1312,-1102
811,-2618,-1672,960,-1247,-1064
903,-2565,-1610,1050,-1218,-1030
986,-2525,-1598,1108,-1157,-977
1105,-2497,-1613,1162,-1069,-919
1225,-2451,-1576,1238,-988,-846
1318,-2408,-1545,1296,-902,-750
1344,-2376,-1573,1342,-753,-675
1399,-2335,-1635,1407,-633,-597
1479,-2290,-1608,1508,-606,-482
1494,-2201,-1521,1602,-602,-343
1417,-2137,-1464,1643,-513,-239
1459,-2070,-1371,1653,-392,-192
1528,-2031,-1316,1624,-212,-147
1547,-1964,-1306,1583,-42,-62
1542,-1898,-1359,1537,106,41
1603,-1851,-1370,1522,177,157
1660,-1824,-1290,1531,204,291
1635,-1756,-1242,1519,357,437
1570,-1686,-1193,1498,402,600
1474,-1644,-1131,1470,377,757
1301,-1595,-1082,1437,469,856
1119,-1555,-1074,1390,635,877
1053,-1543,-1047,1352,820,853
1085,-1531,-1032,1335,912,878
1054,-1497,-971,1337,952,972
906,-1494,-880,1316,1003,1090
766,-1494,-781,1255,1020,1178
687,-1523,-771,1160,1012,1248
498,-1577,-830,1088,979,1346
237,-1635,-808,1073,983,1397
37,-1710,-763,1056,1002,1345
-113,-1758,-747,1031,1093,1212
-299,-1844,-733,1009,1223,1057
-433,-1904,-641,1021,1290,888
-424,-1944,-540,1014,1287,703
-370,-1991,-450,977,1298,572
-324,-2022,-293,949,1347,501
-336,-2058,-130,876,1318,490
-399,-2113,-93,760,1313,487
-458,-2172,-144,683,1319,461
-539,-2215,-232,665,1357,428
-685,-2259,-311,691,1376,414
-795,-2282,-323,749,1329,425
-905,-2275,-263,805,1187,445
-1107,-2279,-262,818,1119,428
-1285,-2281,-192,850,1084,350
-1307,-2230,-55,870,1073,210
-1266,-2177,-9,814,1224,45
-1264,-2184,-128,741,1363,-26
-1331,-2175,-205,786,1294,22
-1430,-2108,-139,893,1043,109
-1529,-2010,29,957,847,154
-1631,-1952,202,945,722,150
-1706,-1950,262,854,550,142
-1644,-1939,245,767,417,89
-1575,-1933,170,713,320,35
-1581,-1883,104,690,257,-2
-1656,-1840,51,700,212,-51
-1678,-1776,58,737,120,-101
-1608,-1668,140,787,6,-163
-1564,-1618,198,794,-137,-177
-1607,-1549,318,834,-269,-214
-1598,-1472,433,829,-392,-317
-1497,-1424,478,774,-409,-461
-1400,-1380,473,715,-418,-580
-1303,-1327,487,663,-453,-668
-1151,-1292,466,594,-487,-751
-990,-1282,384,518,-527,-781
-841,-1267,352,484,-625,-764
-706,-1260,382,457,-763,-713
-644,-1283,413,411,-858,-660
-581,-1284,377,359,-943,-630
-492,-1305,345,324,-958,-641
-436,-1296,306,306,-903,-665
-407,-1278,296,295,-929,-668
-410,-1272,300,281,-1000,-665
-372,-1246,327,271,-1072,-683
-307,-1202,357,231,-1173,-696
-222,-1190,357,161,-1225,-711
-152,-1167,342,96,-1219,-737
-127,-1156,347,35,-1256,-746
11,-1136,326,-50,-1246,-817
78,-1147,247,-147,-1138,-878
62,-1159,229,-173,-1098,-897
169,-1095,265,-195,-1123,-945
273,-1084,238,-262,-1091,-970
350,-1082,232,-305,-1078,-962
402,-1060,284,-341,-1107,-923
429,-1060,328,-413,-1123,-867
526,-1081,314,-518,-1138,-847
587,-1207,192,-636,-1179,-797
646,-1296,69,-694,-1191,-771
718,-1333,-19,-713,-1132,-812
755,-1388,-111,-712,-990,-872
851,-1377,-197,-687,-860,-927
929,-1356,-245,-645,-864,-875
1009,-1309,-165,-606,-986,-745
1065,-1310,-46,-640,-1050,-643
1093,-1393,-77,-737,-965,-623
1206,-1484,-207,-799,-808,-669
1298,-1566,-269,-788,-600,-733
1385,-1628,-272,-768,-343,-812
1568,-1672,-316,-761,-149,-857
1728,-1653,-304,-738,-138,-752
1797,-1644,-216,-734,-242,-519
1842,-1669,-213,-787,-396,-259
1855,-1662,-252,-833,-446,-23
1809,-1675,-306,-871,-388,176
1721,-1714,-415,-899,-324,351
1569,-1766,-412,-875,-273,478
1445,-1878,-372,-875,-70,471
1429,-1960,-461,-890,298,356
1344,-2037,-565,-847,577,293
1272,-2087,-605,-767,710,270
1334,-2075,-532,-690,794,259
1462,-1937,-372,-658,784,323
1545,-1895,-298,-736,745,459
1502,-1921,-305,-837,845,590
1479,-1956,-359,-913,920,685
1454,-2023,-427,-958,999,751
1392,-2121,-514,-966,1080,815
1341,-2202,-580,-908,1266,817
1258,-2181,-586,-846,1501,814
1162,-2184,-654,-859,1587,893
1082,-2188,-724,-860,1516,1037
962,-2149,-770,-841,1350,1212
838,-2162,-885,-820,1337,1329
626,-2113,-891,-747,1392,1394
434,-2061,-879,-709,1426,1397
332,-2037,-905,-682,1536,1372
220,-1951,-874,-647,1584,1371
40,-1887,-851,-649,1564,1403
-152,-1838,-802,-644,1542,1431
-288,-1774,-722,-639,1499,1411
-373,-1714,-694,-676,1509,1366
-457,-1654,-730,-726,1520,1360
-599,-1634,-764,-756,1398,1413
-786,-1621,-743,-753,1250,1440
-893,-1579,-695,-750,1179,1390
-957,-1558,-610,-753,1178,1298
-1038,-1537,-555,-769,1196,1225
-1158,-1499,-484,-780,1191,1168
-1269,-1491,-432,-804,1101,1129
-1356,-1472,-387,-832,993,1083
-1427,-1448,-375,-879,910,1017
-1442,-1484,-409,-943,827,961
-1480,-1511,-395,-983,722,900
-1514,-1537,-420,-1045,609,843
-1567,-1645,-476,-1090,553,777
-1609,-1657,-528,-1107,507,682
-1659,-1667,-509,-1121,397,593
-1763,-1725,-452,-1153,354,469
-1738,-1765,-512,-1219,347,307
-1587,-1832,-614,-1244,228,200
-1489,-1856,-627,-1214,24,167
-1461,-1841,-636,-1206,-141,159
-1440,-1879,-588,-1216,-246,137
-1447,-1945,-552,-1238,-332,91
-1393,-1956,-611,-1305,-373,24
-1377,-2052,-735,-1366,-398,1
-1376,-2149,-842,-1367,-549,15
-1361,-2193,-920,-1339,-740,13
-1448,-2288,-982,-1301,-796,-18
-1510,-2358,-1003,-1251,-853,-102
-1407,-2399,-1021,-1216,-926,-249
-1282,-2413,-1076,-1208,-917,-379
-1208,-2497,-1252,-1203,-910,-445
-1167,-2569,-1305,-1101,-1026,-459
-1225,-2568,-1202,-986,-1237,-461
-1227,-2612,-1186,-973,-1330,-557
-1122,-2714,-1359,-996,-1319,-713
-1055,-2762,-1526,-957,-1353,-829
-1013,-2798,-1600,-862,-1429,-898
-942,-2794,-1606,-752,-1547,-970
-885,-2785,-1630,-665,-1619,-1061
-754,-2817,-1722,-581,-1656,-1156
-491,-2818,-1800,-476,-1678,-1254
-408,-2837,-1890,-354,-1683,-1280
-401,-2831,-1924,-196,-1710,-1291
-242,-2814,-1877,-42,-1757,-1378
-39,-2799,-1833,71,-1666,-1452
108,-2821,-1828,173,-1582,-1453
327,-2823,-1842,274,-1631,-1382
379,-2845,-1830,383,-1640,-1269
384,-2849,-1805,492,-1617,-1196
485,-2818,-1831,600,-1596,-1163
576,-2784,-1822,725,-1536,-1096
580,-2755,-1796,835,-1464,-1012
578,-2720,-1795,930,-1407,-955
603,-2683,-1825,1034,-1246,-948
670,-2616,-1779,1143,-1139,-929
761,-2560,-1733,1226,-1117,-894
884,-2485,-1743,1291,-989,-868
952,-2410,-1756,1362,-826,-823
1027,-2339,-1719,1455,-682,-762
1128,-2241,-1571,1553,-619,-678
1184,-2132,-1441,1585,-514,-556
1215,-2073,-1386,1555,-387,-405
1217,-2031,-1401,1534,-357,-224
1167,-1978,-1457,1534,-314,-66
1078,-1940,-1461,1549,-221,21
1034,-1898,-1387,1569,-116,51
1011,-1862,-1324,1562,40,62
1047,-1821,-1334,1538,233,63
1106,-1783,-1311,1529,366,118
1150,-1755,-1204,1530,451,228
1139,-1685,-1111,1505,525,373
1037,-1632,-1037,1455,598,532
908,-1595,-969,1415,611,648
822,-1566,-894,1371,681,702
746,-1527,-803,1308,811,736
663,-1525,-764,1228,893,794
534,-1530,-709,1173,879,876
342,-1543,-636,1096,875,919
134,-1618,-634,991,1023,863
16,-1682,-749,911,1260,734
-38,-1732,-884,881,1370,671
-141,-1800,-915,936,1333,697
-181,-1814,-733,1027,1173,733
-213,-1801,-532,1026,1074,771
-292,-1830,-440,942,1107,809
-425,-1904,-402,859,1101,815
-618,-2006,-410,775,1144,735
-734,-2092,-377,722,1250,579
-772,-2164,-339,685,1315,446
-888,-2252,-409,657,1339,368
-1090,-2323,-502,689,1401,254
-1119,-2366,-567,791,1440,113
-1033,-2336,-498,942,1471,10
-1070,-2257,-378,1035,1465,5
-1158,-2220,-268,1071,1336,53
-1180,-2179,-162,1081,1261,51
-1272,-2168,-95,1039,1278,39
-1387,-2110,3,1003,1292,22
-1457,-2045,142,948,1190,-5
-1521,-1992,176,830,1105,-10
-1541,-1950,124,709,1038,-1
-1610,-1967,-4,642,868,52
-1631,-1985,-109,666,700,60
-1587,-1946,-76,752,604,3
-1610,-1937,-129,797,577,-39
-1703,-1912,-104,889,587,-112
-1755,-1847,53,966,554,-219
-1729,-1791,184,954,512,-326
-1701,-1741,246,888,495,-414
-1645,-1711,252,810,457,-464
-1555,-1692,207,772,302,-450
-1474,-1647,220,781,79,-384
-1505,-1629,242,782,-68,-324
-1593,-1635,185,786,-163,-334
-1595,-1601,168,842,-242,-432
-1565,-1552,205,906,-238,-567
-1485,-1492,228,935,-160,-722
-1380,-1475,253,946,-95,-832
-1321,-1403,329,963,-185,-825
-1263,-1305,498,949,-431,-775
-1214,-1285,656,845,-697,-733
-1128,-1274,630,687,-822,-764
-966,-1263,492,568,-894,-794
-824,-1264,437,521,-955,-797
-773,-1234,433,486,-949,-811
-706,-1245,396,451,-969,-841
-587,-1213,436,453,-998,-872
-503,-1194,506,418,-987,-905
-490,-1217,458,349,-960,-941
-432,-1208,413,326,-1057,-956
-281,-1179,415,301,-1213,-950
-167,-1164,405,248,-1297,-951
-119,-1167,396,195,-1295,-973
36,-1150,395,132,-1251,-1029
220,-1143,353,56,-1175,-1073
206,-1139,282,20,-1100,-1041
243,-1085,332,25,-1130,-989
319,-1012,414,-27,-1211,-946
306,-1015,357,-139,-1208,-918
342,-1036,313,-198,-1231,-921
476,-1008,330,-248,-1244,-949
549,-1059,282,-337,-1165,-961
481,-1134,246,-377,-1141,-938
527,-1102,303,-399,-1177,-948
674,-1131,289,-493,-1113,-986
783,-1209,161,-593,-979,-1021
878,-1225,76,-635,-934,-1020
1031,-1252,19,-653,-921,-990
1188,-1270,-39,-647,-905,-946
1206,-1292,-24,-626,-871,-867
1225,-1286,108,-615,-865,-790
1260,-1270,164,-680,-859,-710
1271,-1310,133,-779,-909,-610
1379,-1352,79,-874,-927,-550
1440,-1426,-55,-956,-836,-488
1417,-1512,-195,-972,-767,-417
1454,-1565,-290,-935,-721,-354
1527,-1647,-273,-882,-629,-307
1588,-1673,-245,-860,-445,-314
1704,-1682,-276,-878,-247,-319
1833,-1719,-306,-894,-155,-228
1860,-1770,-297,-907,-138,-56
1840,-1789,-290,-921,-137,123
1809,-1855,-297,-938,-141,294
1734,-1925,-281,-932,-123,427
1652,-1974,-318,-952,26,443
1669,-2062,-440,-975,323,380
1668,-2143,-516,-937,490,383
1641,-2174,-545,-877,586,412
1603,-2174,-520,-829,722,413
1574,-2197,-524,-805,878,414
1630,-2181,-546,-787,969,434
1692,-2141,-524,-779,1001,536
1645,-2146,-488,-792,1019,674
1573,-2176,-519,-821,1024,796
1563,-2178,-575,-824,1105,885
1504,-2175,-662,-808,1223,986
1347,-2149,-712,-761,1316,1088
1183,-2096,-713,-717,1360,1190
993,-2065,-773,-704,1391,1293
821,-2078,-833,-669,1357,1405
671,-2017,-787,-590,1285,1497
488,-1946,-703,-549,1260,1539
288,-1887,-707,-568,1384,1472
222,-1890,-815,-579,1587,1339
189,-1824,-841,-517,1696,1272
163,-1707,-768,-454,1680,1284
68,-1597,-661,-440,1696,1328
-90,-1495,-588,-491,1677,1388
-227,-1480,-592,-581,1599,1432
-343,-1547,-611,-636,1535,1455
-431,-1508,-568,-636,1446,1460
-561,-1475,-594,-669,1412,1440
-749,-1476,-680,-703,1469,1395
-861,-1420,-636,-682,1408,1326
-942,-1350,-553,-702,1328,1245
-1060,-1374,-567,-776,1358,1163
-1134,-1421,-662,-810,1317,1104
-1109,-1426,-598,-758,1182,1074
-1146,-1372,-375,-730,1071,1074
-1327,-1360,-266,-827,1066,1075
-1493,-1352,-237,-946,1037,1007
-1558,-1337,-299,-1069,966,905
-1586,-1406,-487,-1192,941,806
-1619,-1522,-661,-1236,841,742
-1650,-1589,-671,-1200,649,674
-1636,-1610,-576,-1185,519,577
-1654,-1685,-603,-1239,529,465
-1665,-1755,-708,-1279,551,357
-1668,-1797,-710,-1265,451,266
-1644,-1802,-626,-1271,308,200
-1624,-1872,-585,-1337,185,159
-1588,-1979,-734,-1424,43,149
-1595,-2071,-794,-1427,-142,154
-1627,-2139,-807,-1409,-294,131
-1693,-2192,-810,-1410,-376,88
-1795,-2245,-865,-1426,-475,31
-1822,-2300,-962,-1455,-539,-99
-1826,-2418,-1051,-1452,-572,-273
-1728,-2471,-1098,-1414,-597,-456
-1540,-2537,-1183,-1387,-749,-565
-1439,-2633,-1256,-1319,-963,-601
-1318,-2672,-1283,-1235,-1069,-672
-1206,-2727,-1303,-1181,-1144,-735
-1149,-2810,-1285,-1119,-1255,-795
-1118,-2842,-1278,-1062,-1351,-868
-1084,-2813,-1301,-1034,-1429,-959
-1067,-2836,-1425,-1025,-1480,-1054
-1042,-2873,-1566,-961,-1642,-1133
-857,-2832,-1629,-849,-1842,-1255
-669,-2843,-1693,-744,-1845,-1372
-506,-2870,-1788,-623,-1764,-1481
-293,-2914,-1928,-465,-1733,-1558
-79,-2890,-1943,-258,-1786,-1546
85,-2888,-1909,-60,-1709,-1514
212,-2893,-1910,103,-1583,-1485
315,-2819,-1904,267,-1614,-1405
326,-2772,-1845,422,-1659,-1290
392,-2760,-1788,546,-1646,-1226
430,-2704,-1746,662,-1585,-1193
377,-2642,-1663,773,-1503,-1148
391,-2574,-1575,865,-1471,-1133
508,-2549,-1570,911,-1395,-1144
666,-2547,-1638,956,-1208,-1148
823,-2519,-1663,1060,-1074,-1119
971,-2498,-1614,1181,-1040,-1040
1111,-2464,-1519,1270,-968,-943
1270,-2427,-1489,1296,-848,-837
1375,-2398,-1484,1320,-751,-692
1440,-2344,-1485,1348,-691,-511
1454,-2296,-1493,1374,-577,-343
1453,-2227,-1510,1410,-465,-202
1419,-2143,-1523,1435,-405,-43
1247,-2096,-1523,1470,-366,97
1045,-2014,-1436,1523,-226,115
958,-1889,-1308,1533,-25,26
977,-1831,-1274,1476,214,-84
1040,-1800,-1309,1431,455,-136
1127,-1740,-1327,1442,566,-91
1176,-1679,-1204,1471,571,52
1209,-1620,-1000,1456,544,214
1263,-1582,-904,1363,553,375
1234,-1557,-865,1268,600,544
1050,-1557,-819,1189,683,682
817,-1588,-761,1102,832,705
771,-1572,-759,994,1070,609
760,-1598,-894,878,1295,588
668,-1657,-1027,855,1336,700
566,-1677,-1014,939,1257,828
439,-1650,-830,1010,1133,948
324,-1633,-688,967,1086,1010
180,-1708,-723,874,1169,984
54,-1775,-761,821,1314,885
6,-1794,-732,777,1460,772
-62,-1842,-775,727,1563,724
-113,-1888,-837,726,1661,728
-259,-1918,-735,783,1622,778
-431,-1933,-557,795,1585,789
-558,-1999,-486,729,1693,707
-686,-2062,-518,662,1839,606
-744,-2120,-518,640,1862,551
-762,-2153,-569,636,1793,552
-883,-2208,-680,670,1757,604
-1013,-2211,-693,765,1667,636
-1161,-2193,-533,873,1558,617
-1285,-2168,-336,917,1540,557
-1354,-2135,-210,905,1501,490
-1408,-2130,-140,873,1415,443
-1462,-2110,-99,821,1334,417
-1478,-2125,-129,748,1252,433
-1569,-2121,-263,690,1129,491
-1631,-2158,-428,697,966,517
-1694,-2144,-522,781,806,515
-1806,-2103,-504,917,724,475
-1877,-2064,-446,1028,680,388
-1920,-2037,-390,1105,630,297
-1958,-2009,-276,1173,537,215
-1932,-1967,-186,1182,426,120
-1873,-1929,-155,1153,281,55
-1884,-1900,-100,1156,52,57
-1841,-1826,16,1174,-216,45
-1814,-1749,163,1152,-402,9
-1859,-1698,309,1086,-526,-44
-1798,-1630,415,989,-653,-154
-1697,-1601,432,862,-722,-266
-1584,-1603,383,754,-718,-361
-1467,-1582,326,687,-700,-458
-1384,-1612,234,644,-700,-548
-1340,-1596,133,665,-687,-619
-1235,-1526,163,742,-760,-673
-1116,-1458,275,778,-851,-690
-1109,-1396,345,743,-922,-670
-1094,-1336,435,681,-1055,-653
-1054,-1304,558,587,-1170,-675
-1024,-1258,609,437,-1191,-750
-909,-1234,627,260,-1147,-883
-779,-1251,590,71,-1063,-1008
-634,-1281,388,-95,-1014,-1099
-432,-1342,131,-157,-1060,-1115
-329,-1357,-37,-89,-1121,-1027
-307,-1290,-28,60,-1242,-931
-277,-1220,130,183,-1374,-883
-357,-1148,264,218,-1431,-839
-404,-1086,445,197,-1494,-868
-278,-1033,541,53,-1425,-1034
-192,-1100,374,-151,-1203,-1213
-8,-1149,188,-252,-1051,-1366
212,-1223,96,-267,-961,-1441
396,-1278,-43,-266,-816,-1462
557,-1294,-166,-193,-757,-1415
625,-1284,-109,-65,-940,-1246
637,-1210,39,15,-1139,-1069
651,-1151,162,8,-1214,-952
619,-1128,238,-55,-1236,-873
667,-1133,291,-153,-1223,-857
693,-1151,255,-272,-1118,-882
672,-1184,159,-360,-1080,-891
773,-1224,78,-412,-1066,-930
852,-1253,12,-438,-974,-948
888,-1309,-32,-428,-958,-922
990,-1370,-30,-406,-990,-893
1086,-1354,54,-397,-987,-851
1131,-1355,70,-444,-968,-815
1245,-1378,-12,-502,-936,-794
1357,-1388,-60,-524,-905,-747
1439,-1401,-80,-532,-826,-679
1525,-1447,-105,-537,-693,-635
1595,-1485,-167,-547,-532,-580
1627,-1548,-189,-540,-422,-485
1651,-1583,-131,-524,-433,-355
1588,-1622,-43,-541,-463,-198
1484,-1676,-19,-597,-494,-70
1516,-1675,-59,-660,-479,-8
1507,-1689,-111,-711,-437,89
1524,-1667,-196,-748,-388,172
1585,-1663,-260,-763,-302,254
1574,-1711,-235,-749,-204,345
1571,-1776,-170,-741,-76,388
1571,-1837,-78,-749,93,436
1504,-1908,-47,-791,296,471
1513,-1952,-29,-835,503,460
1531,-2003,-91,-900,642,484
1541,-2094,-199,-929,665,581
1545,-2136,-240,-913,678,701
1534,-2177,-270,-906,771,800
1498,-2195,-342,-913,813,921
1371,-2233,-416,-909,816,1047
1199,-2274,-475,-879,909,1115
1057,-2270,-507,-838,1050,1128
934,-2277,-564,-813,1170,1120
788,-2300,-631,-795,1295,1119
668,-2288,-657,-769,1365,1128
562,-2284,-689,-756,1365,1156
492,-2263,-724,-738,1309,1200
455,-2237,-738,-704,1285,1220
382,-2196,-792,-675,1312,1232
266,-2145,-821,-613,1324,1260
223,-2048,-764,-531,1253,1288
155,-1926,-713,-485,1230,1323
44,-1850,-676,-463,1253,1363
-68,-1753,-639,-451,1223,1393
-185,-1718,-630,-461,1193,1426
-297,-1637,-566,-456,1211,1411
-469,-1631,-546,-497,1278,1333
-531,-1653,-583,-542,1397,1216
-482,-1603,-609,-536,1362,1163
-470,-1553,-577,-529,1209,1233
-592,-1554,-610,-532,1078,1336
-724,-1516,-658,-513,960,1379
-823,-1431,-611,-487,937,1312
-908,-1368,-579,-513,1051,1200
-986,-1360,-550,-545,1147,1101
-1068,-1371,-484,-570,1074,1046
-1171,-1339,-388,-606,928,1011
-1299,-1328,-332,-689,730,984
-1438,-1392,-417,-778,544,948
-1503,-1402,-522,-800,380,884
-1457,-1319,-533,-780,238,808
-1325,-1274,-410,-795,307,683
-1343,-1327,-391,-932,579,569
-1526,-1457,-567,-1063,843,530
-1586,-1536,-654,-1044,801,504
-1627,-1537,-521,-946,452,489
-1724,-1536,-364,-938,234,446
-1848,-1533,-343,-1045,193,336
-1941,-1577,-460,-1193,143,185
-1858,-1661,-672,-1298,93,22
-1612,-1731,-764,-1323,12,-101
-1475,-1838,-746,-1331,-108,-130
-1528,-1958,-748,-1343,-146,-86
-1678,-2043,-717,-1305,-270,-32
-1683,-2056,-655,-1275,-573,-40
-1665,-2089,-676,-1343,-760,-84
-1736,-2195,-852,-1436,-804,-121
-1788,-2298,-939,-1423,-864,-227
-1763,-2429,-1034,-1407,-943,-402
-1593,-2564,-1193,-1395,-892,-616
-1332,-2669,-1272,-1325,-839,-821
-1112,-2776,-1363,-1259,-839,-947
-980,-2852,-1457,-1166,-881,-971
-930,-2872,-1434,-1019,-1051,-912
-947,-2854,-1332,-894,-1352,-807
-1022,-2815,-1250,-830,-1578,-753
-1146,-2843,-1298,-836,-1680,-794
-1130,-2874,-1423,-837,-1718,-975
-943,-2901,-1576,-804,-1656,-1230
-733,-2960,-1749,-733,-1518,-1468
-509,-3014,-1939,-598,-1358,-1671
-322,-2988,-1974,-367,-1311,-1757
-195,-2904,-1852,-133,-1483,-1688
-107,-2828,-1696,22,-1646,-1588
-26,-2792,-1648,88,-1725,-1506
46,-2803,-1713,129,-1816,-1440
200,-2775,-1718,212,-1860,-1414
330,-2753,-1673,295,-1834,-1392
403,-2764,-1744,357,-1707,-1388
499,-2740,-1854,462,-1581,-1404
567,-2770,-1931,621,-1442,-1425
642,-2675,-1895,817,-1235,-1461
715,-2569,-1816,970,-1077,-1471
850,-2508,-1748,1080,-1015,-1435
1051,-2432,-1677,1180,-973,-1361
1156,-2362,-1583,1256,-895,-1222
1215,-2283,-1488,1287,-816,-1095
1358,-2230,-1450,1270,-686,-1011
1519,-2209,-1455,1260,-522,-881
1622,-2141,-1478,1292,-355,-707
1651,-2060,-1426,1351,-201,-510
1636,-2007,-1369,1381,-111,-297
1627,-1923,-1288,1409,-54,-83
1560,-1829,-1187,1420,-89,145
1450,-1767,-1137,1376,-55,343
1308,-1719,-1126,1319,95,473
1176,-1663,-1129,1279,241,580
972,-1632,-1111,1274,315,684
