ax,ay,az,gx,gy,gz
468,-851,369,174,-1080,-918
642,-858,349,32,-971,-971
743,-947,304,-79,-879,-1037
808,-989,233,-121,-823,-1063
827,-974,189,-127,-915,-1005
765,-974,151,-162,-1030,-916
713,-990,91,-228,-1118,-827
712,-979,83,-286,-1247,-735
854,-955,124,-366,-1295,-698
1010,-988,130,-494,-1183,-735
1122,-1077,50,-620,-946,-829
1224,-1195,-86,-713,-715,-940
1357,-1310,-186,-715,-564,-951
1344,-1346,-221,-684,-546,-820
1254,-1344,-173,-655,-557,-659
1149,-1294,-103,-656,-634,-525
1059,-1279,-36,-711,-788,-414
1032,-1343,-51,-830,-872,-349
1056,-1439,-135,-932,-887,-362
1206,-1498,-199,-985,-852,-449
1598,-1466,-206,-999,-642,-584
1822,-1511,-306,-1026,-319,-706
1751,-1618,-484,-1022,-76,-739
1650,-1604,-546,-924,6,-689
1643,-1460,-471,-812,-50,-562
1645,-1282,-301,-782,-165,-349
1596,-1210,-197,-884,-285,-128
1636,-1283,-192,-1077,-319,28
1801,-1412,-253,-1254,-262,110
1983,-1592,-410,-1340,-80,127
2084,-1775,-595,-1334,158,115
2042,-1907,-783,-1236,364,141
2018,-1968,-918,-1073,507,207
1977,-1991,-984,-894,597,303
1876,-1896,-927,-732,622,464
1754,-1738,-795,-650,648,639
1606,-1675,-686,-669,761,756
1457,-1676,-641,-737,832,817
1393,-1671,-641,-807,843,868
1328,-1702,-626,-875,832,964
1214,-1705,-672,-924,828,1086
1014,-1670,-677,-934,841,1174
935,-1579,-652,-978,854,1194
879,-1501,-618,-1049,898,1207
753,-1461,-657,-1133,981,1228
574,-1456,-707,-1209,1035,1218
466,-1471,-801,-1292,1097,1151
367,-1507,-873,-1340,1123,1088
241,-1562,-955,-1345,1078,1074
137,-1658,-1032,-1341,1006,1108
63,-1778,-1107,-1334,914,1176
19,-1846,-1107,-1286,756,1277
-74,-1840,-1016,-1210,632,1354
-209,-1845,-939,-1166,594,1318
-422,-1870,-895,-1143,592,1190
-567,-1933,-920,-1145,628,990
-626,-2001,-952,-1152,617,792
-614,-2082,-1003,-1159,560,639
-625,-2207,-1074,-1157,426,606
-680,-2329,-1094,-1115,195,646
-696,-2381,-1040,-1029,-80,681
-677,-2380,-946,-927,-305,680
-739,-2406,-860,-829,-436,631
-787,-2436,-892,-764,-596,538
-742,-2488,-920,-718,-676,417
-642,-2468,-915,-679,-766,334
-582,-2483,-918,-720,-792,208
-549,-2541,-948,-766,-730,1
-420,-2581,-1027,-779,-671,-226
-242,-2591,-1067,-729,-717,-352
-129,-2595,-1085,-654,-834,-349
-90,-2595,-1066,-572,-993,-260
-74,-2565,-1035,-504,-1177,-146
-95,-2580,-1058,-472,-1321,-38
-174,-2608,-1127,-457,-1434,31
-352,-2624,-1165,-427,-1481,-9
-478,-2641,-1256,-366,-1430,-233
-467,-2654,-1339,-283,-1365,-522
-344,-2610,-1383,-180,-1314,-735
-176,-2535,-1411,-76,-1312,-821
-43,-2501,-1433,17,-1355,-828
167,-2458,-1394,139,-1439,-829
468,-2351,-1259,254,-1485,-848
740,-2239,-1150,314,-1425,-885
864,-2218,-1117,344,-1330,-895
943,-2201,-1110,379,-1307,-842
980,-2152,-1090,425,-1314,-730
1046,-2093,-1085,438,-1323,-648
1154,-2113,-1122,431,-1241,-643
1287,-2165,-1207,438,-1043,-688
1406,-2203,-1288,464,-865,-712
1479,-2285,-1387,537,-750,-643
1475,-2283,-1394,656,-726,-503
1459,-2237,-1332,749,-710,-375
1405,-2190,-1289,801,-687,-269
1309,-2167,-1257,843,-597,-204
1243,-2135,-1274,869,-493,-186
1248,-2121,-1303,899,-374,-190
1306,-2102,-1311,934,-230,-194
1357,-2048,-1245,976,-66,-206
1447,-2010,-1165,980,168,-251
1524,-2010,-1164,966,371,-253
1514,-2049,-1201,989,482,-164
1499,-1993,-1183,1047,499,-6
1433,-1928,-1126,1079,525,180
1324,-1895,-1112,1066,580,334
1181,-1856,-1095,1061,626,441
1044,-1792,-1070,1051,682,500
1012,-1734,-1012,1019,767,497
1058,-1717,-952,957,956,414
1139,-1718,-948,902,1176,311
1228,-1738,-981,864,1316,289
1284,-1777,-983,836,1373,403
1192,-1823,-986,820,1398,581
984,-1860,-967,835,1371,744
715,-1860,-907,865,1345,851
457,-1909,-906,862,1356,870
272,-1967,-923,865,1347,832
150,-2028,-909,888,1369,747
46,-2090,-889,912,1417,643
-21,-2106,-839,949,1447,535
-93,-2105,-749,978,1453,446
-201,-2120,-640,977,1417,385
-278,-2115,-534,967,1355,316
-335,-2119,-471,943,1292,247
-432,-2167,-460,912,1166,232
-539,-2193,-435,894,998,252
-618,-2181,-394,876,848,239
-668,-2184,-399,841,767,153
-652,-2255,-501,815,719,26
-595,-2367,-655,862,706,-101
-468,-2392,-712,995,674,-183
-320,-2279,-573,1155,606,-209
-379,-2188,-419,1254,579,-220
-492,-2103,-319,1297,536,-251
-487,-1979,-200,1314,442,-283
-495,-1898,-116,1273,348,-283
-534,-1886,-96,1202,270,-284
-472,-1842,-39,1160,170,-321
-404,-1769,48,1113,85,-351
-427,-1714,115,1034,14,-381
-464,-1673,148,940,-46,-433
-478,-1664,128,841,-101,-493
-476,-1656,59,763,-171,-517
-488,-1642,10,719,-265,-513
-465,-1642,-40,693,-344,-511
-405,-1653,-35,691,-436,-513
-264,-1608,25,712,-503,-532
-168,-1547,108,721,-555,-546
-146,-1518,163,690,-622,-552
-55,-1441,242,644,-697,-578
50,-1396,277,546,-728,-622
145,-1451,211,421,-694,-656
243,-1534,149,343,-681,-675
340,-1570,112,323,-713,-668
433,-1582,87,326,-751,-631
495,-1584,74,345,-813,-574
492,-1572,50,370,-853,-513
484,-1567,33,400,-876,-475
519,-1522,75,438,-918,-441
565,-1452,177,445,-931,-413
574,-1387,280,387,-891,-421
590,-1378,324,299,-796,-492
699,-1383,310,200,-733,-564
808,-1387,283,105,-718,-567
830,-1430,219,14,-711,-514
797,-1480,136,-36,-729,-451
744,-1518,61,-32,-796,-384
707,-1490,43,1,-893,-302
697,-1405,96,19,-971,-224
777,-1344,187,-29,-938,-217
876,-1368,223,-131,-814,-283
906,-1396,210,-203,-714,-371
972,-1384,192,-264,-635,-458
1044,-1408,142,-351,-547,-502
1063,-1440,88,-417,-508,-489
1045,-1445,26,-441,-516,-456
1069,-1425,-1,-441,-533,-418
1149,-1376,12,-449,-540,-380
1203,-1337,30,-482,-503,-356
1251,-1320,30,-530,-395,-384
1336,-1354,1,-575,-278,-431
1449,-1352,18,-612,-183,-447
1481,-1337,36,-657,-79,-442
1458,-1297,52,-717,8,-425
1416,-1311,20,-799,58,-393
1442,-1323,0,-880,20,-319
1522,-1364,-66,-964,17,-227
1600,-1474,-152,-1033,-8,-92
1628,-1555,-192,-1067,-25,85
1592,-1634,-242,-1078,-20,231
1590,-1638,-253,-1065,-12,295
1536,-1651,-312,-1079,121,271
1450,-1709,-436,-1097,289,217
1483,-1743,-541,-1077,427,174
1559,-1724,-545,-1034,514,209
1512,-1740,-456,-1005,560,331
1389,-1794,-380,-992,575,467
1272,-1817,-299,-972,524,598
1171,-1774,-214,-972,463,709
1057,-1726,-186,-1024,479,753
958,-1707,-213,-1111,522,724
894,-1716,-306,-1206,612,650
859,-1751,-475,-1282,729,555
852,-1819,-661,-1300,820,487
883,-1837,-787,-1250,855,480
899,-1819,-840,-1159,855,538
876,-1796,-839,-1071,843,630
764,-1742,-795,-989,800,729
636,-1691,-716,-943,749,788
539,-1629,-662,-971,713,823
430,-1628,-659,-1041,692,852
392,-1614,-627,-1111,679,850
388,-1607,-623,-1180,725,786
379,-1627,-659,-1235,783,690
374,-1640,-699,-1261,818,616
375,-1629,-714,-1272,809,601
356,-1637,-734,-1282,764,624
294,-1685,-746,-1281,720,644
210,-1749,-765,-1276,663,679
117,-1843,-790,-1286,553,746
5,-1958,-829,-1318,393,846
-163,-2084,-903,-1322,216,925
-347,-2132,-970,-1309,110,911
-420,-2203,-1010,-1306,83,828
-562,-2273,-1048,-1263,102,686
-568,-2291,-1034,-1200,136,483
-506,-2229,-939,-1122,116,328
-464,-2182,-816,-1093,78,237
-444,-2196,-794,-1119,-9,195
-500,-2261,-877,-1146,-200,219
-558,-2333,-979,-1162,-387,264
-565,-2441,-1062,-1149,-544,280
-608,-2528,-1086,-1075,-684,257
-712,-2531,-1063,-970,-789,183
-801,-2497,-1034,-887,-871,59
-827,-2504,-1052,-841,-914,-101
-794,-2551,-1116,-796,-983,-253
-708,-2544,-1184,-725,-1100,-357
-536,-2503,-1208,-657,-1227,-414
-289,-2508,-1208,-618,-1309,-468
-20,-2535,-1247,-578,-1323,-543
181,-2546,-1255,-482,-1335,-606
309,-2537,-1251,-353,-1360,-602
388,-2536,-1274,-229,-1393,-535
502,-2501,-1254,-89,-1441,-458
598,-2426,-1154,34,-1487,-414
564,-2380,-1069,93,-1438,-445
478,-2393,-1080,87,-1309,-567
526,-2425,-1139,73,-1222,-700
626,-2490,-1278,98,-1211,-759
793,-2561,-1463,143,-1171,-762
1015,-2644,-1560,227,-1078,-756
1221,-2678,-1613,371,-956,-760
1377,-2596,-1543,578,-855,-746
1509,-2455,-1404,742,-762,-674
1627,-2381,-1362,804,-659,-533
1657,-2362,-1386,870,-617,-338
1582,-2321,-1381,949,-575,-185
1456,-2213,-1308,1037,-513,-76
1339,-2097,-1231,1075,-399,-32
1259,-2073,-1239,1053,-221,-57
1216,-2089,-1311,1042,-84,-77
1246,-2074,-1365,1065,14,-52
1280,-2028,-1339,1127,92,13
1194,-1962,-1311,1189,141,119
1121,-1883,-1254,1229,163,241
1148,-1772,-1131,1264,144,347
1132,-1696,-1054,1239,173,439
1069,-1663,-1006,1188,230,505
1029,-1604,-927,1136,273,535
966,-1583,-854,1059,374,505
872,-1651,-847,966,543,409
840,-1738,-894,910,679,301
862,-1773,-933,909,743,249
870,-1763,-956,909,787,270
874,-1762,-943,892,834,314
874,-1794,-946,865,914,335
827,-1842,-962,852,974,352
752,-1879,-944,864,1002,384
685,-1890,-878,870,1005,439
579,-1899,-796,861,1007,491
394,-1911,-765,839,1018,502
251,-1913,-736,813,1035,451
269,-1913,-697,763,1090,343
322,-1949,-711,693,1178,241
286,-2037,-807,650,1216,207
263,-2074,-823,663,1157,254
189,-2111,-807,679,1087,331
60,-2217,-860,698,1049,383
-41,-2269,-857,778,980,393
-140,-2240,-754,879,919,350
-264,-2204,-660,929,931,254
-341,-2186,-610,945,934,144
-294,-2145,-528,945,921,55
-245,-2149,-482,917,914,11
-294,-2191,-462,898,857,1
-326,-2163,-402,912,768,-9
-353,-2120,-329,912,667,1
-431,-2126,-278,893,578,19
-479,-2119,-271,873,488,3
-486,-2123,-298,864,400,-39
-477,-2144,-347,866,364,-95
-461,-2153,-404,871,335,-147
-466,-2147,-401,914,268,-184
-453,-2095,-350,966,194,-213
-456,-2041,-267,1001,139,-234
-492,-1975,-192,1028,56,-241
-499,-1884,-107,1045,-58,-237
-525,-1803,-21,1043,-166,-224
-523,-1723,68,1004,-289,-232
-472,-1676,123,937,-374,-262
-442,-1652,152,868,-450,-288
-388,-1616,164,805,-543,-312
-354,-1588,192,738,-614,-335
-369,-1576,186,652,-662,-362
-353,-1578,165,563,-708,-420
-293,-1587,137,486,-718,-495
-249,-1605,81,435,-716,-575
-112,-1591,67,415,-740,-656
75,-1553,95,402,-755,-714
263,-1520,140,366,-737,-734
387,-1541,150,310,-693,-733
498,-1561,137,282,-698,-713
579,-1549,153,282,-734,-660
572,-1548,156,271,-745,-605
515,-1571,104,254,-757,-560
406,-1597,55,247,-798,-496
232,-1605,18,261,-863,-420
168,-1556,50,272,-945,-387
224,-1491,118,230,-965,-419
351,-1477,143,142,-898,-508
574,-1456,162,53,-800,-618
700,-1493,115,-35,-692,-703
758,-1561,19,-81,-652,-724
846,-1589,-55,-53,-690,-677
851,-1562,-73,5,-757,-558
728,-1506,-40,49,-828,-418
592,-1420,24,70,-915,-328
578,-1300,144,29,-968,-306
644,-1256,188,-121,-905,-368
815,-1343,105,-304,-736,-521
1027,-1425,27,-412,-573,-675
1182,-1461,-58,-448,-447,-748
1289,-1494,-119,-448,-408,-725
1345,-1489,-134,-416,-406,-624
1298,-1429,-91,-367,-462,-460
1254,-1320,14,-341,-547,-309
1261,-1235,96,-387,-555,-232
1343,-1234,130,-502,-465,-228
1385,-1292,111,-621,-347,-244
1418,-1378,34,-715,-248,-259
1467,-1448,-23,-777,-182,-240
1429,-1497,-78,-815,-142,-176
1400,-1513,-128,-836,-123,-103
1457,-1487,-155,-852,-104,-32
1461,-1484,-176,-874,-103,63
1439,-1504,-232,-911,-53,136
1453,-1554,-294,-941,20,179
1463,-1649,-320,-964,112,217
1427,-1745,-320,-974,192,259
1448,-1778,-303,-965,235,300
1505,-1789,-303,-972,301,337
1500,-1853,-383,-991,384,389
1470,-1918,-477,-986,461,418
1450,-1891,-519,-922,532,405
1375,-1831,-522,-861,602,413
1281,-1770,-531,-849,688,444
1222,-1763,-560,-863,749,480
1206,-1759,-543,-866,803,525
1178,-1776,-481,-867,843,591
1129,-1797,-428,-871,824,684
1041,-1776,-370,-882,763,795
951,-1747,-338,-931,752,860
886,-1766,-393,-1022,807,855
827,-1823,-520,-1102,891,805
740,-1887,-670,-1139,962,755
695,-1947,-833,-1130,998,740
656,-1950,-900,-1073,1000,767
538,-1937,-899,-1006,1004,808
376,-1943,-892,-935,982,841
247,-1953,-833,-856,891,898
127,-1940,-734,-807,777,981
-31,-1937,-651,-798,671,1033
-171,-1929,-588,-806,582,1008
-205,-1888,-540,-838,542,908
-191,-1867,-519,-912,571,777
-204,-1915,-588,-1000,632,636
-183,-1945,-647,-1023,624,529
-149,-1910,-649,-1006,557,479
-190,-1907,-680,-998,491,455
-249,-1941,-758,-980,428,409
-239,-1942,-799,-936,344,346
-215,-1912,-775,-880,243,303
-186,-1891,-747,-862,178,257
-107,-1880,-736,-868,94,218
-81,-1883,-724,-883,2,211
-73,-1916,-784,-908,-62,210
-80,-1957,-805,-910,-129,209
-121,-1950,-801,-894,-175,168
-108,-1928,-764,-892,-175,88
-105,-1929,-757,-904,-179,7
-131,-1994,-825,-943,-171,-89
-134,-2031,-887,-952,-235,-100
-126,-2073,-932,-942,-379,-54
-135,-2119,-996,-945,-512,8
-208,-2192,-1061,-926,-632,66
-250,-2267,-1110,-891,-739,73
-243,-2336,-1129,-833,-835,66
-255,-2385,-1105,-767,-925,59
-188,-2407,-1085,-743,-958,-11
-97,-2476,-1127,-730,-930,-135
-7,-2559,-1203,-710,-904,-230
44,-2631,-1265,-653,-936,-250
80,-2668,-1312,-571,-1023,-206
145,-2690,-1355,-476,-1131,-120
145,-2699,-1359,-352,-1254,-2
88,-2619,-1336,-233,-1293,62
41,-2584,-1291,-146,-1247,-11
-8,-2584,-1264,-73,-1158,-177
-11,-2537,-1228,17,-1050,-380
115,-2494,-1190,85,-952,-555
308,-2478,-1186,127,-930,-614
468,-2456,-1197,174,-1008,-513
523,-2455,-1223,215,-1157,-316
468,-2425,-1277,286,-1298,-156
318,-2437,-1324,380,-1360,-81
145,-2449,-1364,529,-1437,-186
182,-2326,-1323,721,-1479,-441
592,-2084,-1142,839,-1476,-596
1048,-1940,-980,821,-1230,-647
1064,-2081,-1108,617,-768,-655
896,-2243,-1273,565,-576,-573
923,-2213,-1238,714,-663,-414
899,-2052,-1107,841,-749,-261
685,-1970,-1035,861,-724,-176
548,-1946,-1015,871,-660,-228
653,-1893,-1013,888,-640,-321
881,-1899,-1037,892,-600,-359
986,-1932,-1067,881,-467,-376
997,-1999,-1134,870,-249,-467
1107,-2034,-1165,890,-58,-556
1300,-2013,-1136,923,46,-511
1380,-1962,-1088,936,107,-308
1238,-1956,-1064,924,165,-68
1054,-1968,-1071,927,179,93
1004,-1904,-1025,960,158,186
1012,-1829,-953,954,195,240
1001,-1821,-917,893,368,205
924,-1899,-974,812,609,67
939,-1945,-1030,800,780,-54
1020,-1909,-1013,830,828,-36
1004,-1862,-962,841,845,93
902,-1861,-939,839,878,213
878,-1818,-857,860,900,291
808,-1784,-775,849,926,379
634,-1831,-771,788,937,464
479,-1867,-761,752,940,475
401,-1866,-726,747,976,391
408,-1909,-723,723,1075,262
442,-1945,-739,703,1153,163
452,-1941,-752,703,1171,140
453,-1931,-744,700,1161,172
418,-1934,-710,685,1139,232
339,-1946,-653,670,1130,279
233,-2012,-630,658,1111,300
199,-2049,-610,662,1050,314
151,-2080,-586,669,1007,318
67,-2122,-578,666,1013,288
15,-2165,-585,676,1052,206
20,-2182,-587,694,1087,109
42,-2226,-601,697,1118,50
76,-2274,-602,712,1093,47
80,-2278,-566,750,1034,70
62,-2274,-517,770,995,105
-38,-2300,-486,777,962,140
-155,-2277,-439,797,896,138
-240,-2221,-358,807,846,81
-287,-2177,-327,780,870,-40
-282,-2130,-259,748,961,-215
-252,-2139,-220,679,1166,-451
-180,-2232,-312,616,1321,-658
-75,-2319,-460,635,1271,-674
-4,-2322,-530,717,1051,-452
-31,-2242,-458,809,790,-143
-138,-2150,-337,851,654,24
-234,-2066,-244,876,632,32
-392,-2053,-182,887,625,-34
-488,-2012,-131,935,587,-177
-482,-1911,-70,972,501,-278
-548,-1869,-30,932,436,-279
-623,-1869,-27,893,301,-262
-603,-1814,39,893,62,-263
-546,-1739,103,886,-99,-294
-563,-1694,164,848,-208,-334
-590,-1683,166,802,-263,-434
-526,-1675,143,773,-332,-551
-417,-1622,181,757,-418,-615
-393,-1572,226,713,-465,-636
-392,-1542,252,652,-483,-682
-364,-1531,256,600,-504,-758
-302,-1519,228,553,-570,-814
-206,-1481,239,507,-668,-827
-62,-1454,244,437,-757,-821
97,-1447,218,366,-851,-807
269,-1473,142,309,-893,-810
398,-1538,36,292,-904,-808
487,-1574,-34,336,-931,-788
526,-1545,-51,423,-982,-746
466,-1467,4,502,-1017,-687
313,-1403,56,540,-1045,-644
185,-1314,117,546,-1131,-637
213,-1192,179,491,-1225,-657
397,-1107,284,343,-1234,-694
707,-1107,301,127,-1097,-799
967,-1202,184,-52,-947,-913
1133,-1292,59,-119,-869,-946
1226,-1343,-3,-111,-852,-873
1221,-1371,-42,-68,-893,-719
1183,-1300,19,-10,-969,-551
1111,-1203,127,7,-1006,-436
1094,-1120,242,-38,-1003,-394
1203,-1092,301,-156,-933,-421
1322,-1150,263,-315,-843,-448
1383,-1221,201,-437,-774,-452
1470,-1261,158,-516,-688,-465
1547,-1277,139,-566,-614,-449
1565,-1249,125,-588,-546,-403
1534,-1218,125,-608,-514,-341
1554,-1162,140,-639,-490,-279
1606,-1123,133,-696,-446,-240
1647,-1092,66,-781,-418,-160
1636,-1134,16,-910,-377,-12
1555,-1314,-68,-1053,-274,100
1492,-1397,-98,-1094,-215,172
1441,-1418,-89,-1092,-201,234
1447,-1429,-80,-1110,-139,244
1472,-1463,-106,-1137,-47,220
1519,-1479,-150,-1153,30,222
1523,-1455,-175,-1156,80,262
1477,-1428,-194,-1172,112,334
1414,-1412,-206,-1208,132,418
1301,-1462,-217,-1253,174,475
1260,-1546,-276,-1297,251,481
1273,-1714,-401,-1358,334,499
1320,-1889,-527,-1373,353,552
1398,-1996,-618,-1331,352,611
1448,-2030,-683,-1264,407,659
1404,-2042,-713,-1184,432,739
1293,-1999,-689,-1115,478,798
1194,-1976,-677,-1067,566,783
1111,-1979,-688,-1036,635,749
1091,-1967,-711,-1024,638,752
1070,-1991,-715,-1038,617,815
1019,-2054,-739,-1052,634,888
963,-2070,-748,-1026,648,920
854,-2049,-737,-960,719,878
767,-2061,-782,-904,848,788
743,-2066,-805,-847,913,727
706,-2013,-754,-786,863,763
591,-1938,-690,-756,832,834
449,-1896,-644,-758,785,860
318,-1853,-627,-780,703,834
234,-1854,-671,-839,730,755
180,-1869,-751,-910,757,699
92,-1932,-842,-961,727,696
0,-1973,-879,-958,623,701
-65,-1947,-870,-926,584,631
-90,-1934,-856,-900,558,536
-77,-1907,-812,-871,500,465
-98,-1869,-778,-857,451,411
-130,-1859,-753,-869,377,373
-154,-1894,-764,-894,280,355
-146,-1930,-763,-917,167,365
-164,-1964,-746,-946,47,380
-236,-2025,-778,-977,-42,344
-233,-2078,-829,-983,-83,240
-196,-2139,-890,-963,-112,131
-172,-2208,-953,-924,-173,75
-134,-2265,-1002,-872,-261,75
-101,-2298,-1033,-815,-400,128
-92,-2277,-1020,-763,-565,215
-154,-2272,-1011,-745,-661,258
-241,-2300,-1027,-720,-678,203
-309,-2337,-1034,-660,-668,76
-326,-2348,-1010,-589,-692,-24
-344,-2330,-966,-539,-773,-52
-408,-2325,-947,-520,-871,-44
-467,-2340,-965,-517,-974,-55
-494,-2320,-994,-495,-1106,-86
-504,-2329,-1049,-473,-1185,-161
-451,-2337,-1102,-433,-1202,-322
-307,-2303,-1129,-394,-1164,-490
-155,-2343,-1172,-365,-1129,-589
14,-2309,-1160,-270,-1191,-635
165,-2219,-1110,-180,-1288,-606
259,-2195,-1103,-139,-1340,-544
286,-2214,-1117,-88,-1368,-513
301,-2198,-1110,-15,-1401,-510
350,-2149,-1096,33,-1441,-501
392,-2155,-1121,37,-1444,-488
481,-2191,-1189,51,-1409,-520
686,-2206,-1206,96,-1312,-619
892,-2236,-1244,136,-1170,-693
1026,-2294,-1293,206,-1073,-671
1122,-2304,-1255,297,-1043,-574
1173,-2297,-1212,367,-1051,-431
1124,-2315,-1211,422,-1058,-274
998,-2340,-1244,478,-1068,-159
909,-2325,-1277,546,-1059,-117
872,-2288,-1313,603,-1036,-113
828,-2237,-1317,651,-976,-150
882,-2197,-1306,671,-807,-297
1111,-2227,-1332,685,-545,-514
1318,-2234,-1332,760,-395,-592
1376,-2139,-1212,867,-383,-478
1270,-2034,-1106,906,-394,-299
1169,-1962,-1036,903,-370,-184
1110,-1943,-988,880,-277,-181
1088,-1962,-993,857,-175,-233
1110,-1954,-1019,874,-127,-260
1156,-1943,-1057,909,-107,-233
1196,-1908,-1057,917,-63,-175
1294,-1909,-1055,920,23,-148
1307,-1888,-1008,968,105,-66
1326,-1838,-953,971,171,15
1491,-1763,-892,941,259,76
1590,-1735,-886,874,432,125
1500,-1773,-945,812,660,147
1442,-1790,-993,793,864,138
1409,-1782,-990,806,957,212
1249,-1750,-967,804,950,405
985,-1737,-900,778,921,594
785,-1752,-850,733,953,659
681,-1808,-845,686,972,669
566,-1822,-868,654,933,700
537,-1789,-880,612,964,664
572,-1834,-925,541,1165,512
561,-1960,-986,508,1397,326
649,-1985,-990,539,1527,193
663,-2026,-946,594,1549,209
534,-2093,-942,635,1483,352
335,-2142,-878,688,1317,552
62,-2181,-798,733,1136,725
-200,-2198,-749,772,995,764
-427,-2206,-689,799,914,648
-502,-2211,-639,792,1005,370
-409,-2275,-691,769,1162,22
-255,-2316,-726,790,1220,-182
-168,-2317,-727,824,1154,-181
-134,-2321,-693,867,1019,-80
-141,-2286,-588,932,848,41
-221,-2247,-473,982,716,117
-333,-2211,-417,1013,620,119
-407,-2174,-382,1024,543,87
-483,-2146,-337,1009,493,34
-509,-2148,-363,984,513,-116
-434,-2161,-413,985,536,-280
-360,-2166,-410,1020,458,-341
-267,-2112,-344,1068,370,-355
-152,-2053,-239,1096,307,-352
-129,-1980,-154,1102,251,-299
-175,-1932,-62,1083,167,-221
-197,-1938,-43,1042,70,-218
-178,-1879,-17,1017,-4,-222
-218,-1833,7,952,-74,-198
-265,-1823,8,857,-84,-235
-230,-1836,-24,779,-46,-353
-172,-1866,-62,746,-62,-433
-174,-1864,-88,745,-142,-429
-182,-1874,-93,755,-257,-402
-159,-1818,-54,791,-372,-399
-173,-1724,17,843,-435,-416
-225,-1651,66,861,-480,-454
-230,-1572,132,853,-534,-511
-182,-1488,219,813,-586,-553
-162,-1442,266,720,-634,-568
-158,-1446,231,616,-687,-591
-62,-1472,174,532,-737,-644
56,-1491,111,490,-787,-687
159,-1505,56,494,-831,-702
211,-1504,41,529,-887,-692
220,-1471,37,569,-941,-645
223,-1421,76,608,-1058,-556
136,-1302,208,635,-1216,-457
16,-1177,305,587,-1289,-427
1,-1120,341,474,-1319,-477
92,-1063,382,313,-1281,-594
407,-1098,298,69,-1143,-783
774,-1226,135,-105,-991,-954
1026,-1307,-40,-157,-901,-1033
1211,-1332,-169,-137,-802,-1003
1329,-1384,-257,-76,-763,-851
1349,-1333,-198,37,-890,-590
1241,-1164,-35,134,-973,-385
1238,-1006,173,112,-990,-298
1411,-944,338,-34,-900,-301
1550,-937,364,-231,-752,-335
1639,-1011,266,-422,-590,-387
1705,-1107,125,-570,-452,-400
1715,-1155,51,-647,-346,-352
1682,-1192,5,-678,-277,-266
1610,-1166,8,-675,-295,-133
1515,-1099,47,-677,-330,12
1550,-1072,105,-760,-345,140
1597,-1153,114,-896,-281,238
1576,-1265,73,-1002,-212,281
1562,-1336,33,-1060,-150,283
1590,-1366,-5,-1114,-59,292
1539,-1420,-76,-1182,25,339
1460,-1464,-159,-1239,81,388
1400,-1472,-215,-1268,136,408
1386,-1473,-246,-1305,222,402
1413,-1532,-287,-1360,357,375
1445,-1663,-351,-1394,463,365
1478,-1767,-358,-1387,511,400
1511,-1815,-336,-1378,529,476
1472,-1911,-447,-1375,584,549
1434,-1990,-538,-1335,647,588
1406,-1988,-558,-1260,719,602
1311,-1944,-553,-1202,819,613
1207,-1921,-553,-1179,921,603
1156,-1893,-579,-1171,984,598
1050,-1859,-602,-1173,1005,642
867,-1862,-659,-1207,1006,707
737,-1903,-706,-1236,969,755
701,-1868,-682,-1252,924,809
635,-1887,-631,-1289,914,877
513,-1919,-632,-1310,892,905
413,-1896,-642,-1289,880,863
368,-1862,-648,-1287,904,792
334,-1861,-699,-1314,938,732
300,-1883,-757,-1342,953,682
218,-1930,-838,-1357,956,665
144,-1956,-923,-1345,852,711
64,-1973,-971,-1319,702,795
-39,-2017,-999,-1295,601,852
-132,-2037,-970,-1238,521,837
-184,-1993,-874,-1161,456,769
-253,-1929,-781,-1131,427,683
-322,-1903,-734,-1146,427,550
-373,-1934,-768,-1189,455,384
-372,-1990,-848,-1196,452,215
-321,-2018,-902,-1176,360,116
-312,-2047,-951,-1172,213,125
-336,-2064,-994,-1176,62,158
-361,-2098,-1024,-1158,-33,129
-407,-2173,-1068,-1116,-87,46
-397,-2208,-1086,-1042,-179,-24
-368,-2140,-997,-957,-288,-75
-386,-2095,-943,-938,-332,-155
-437,-2107,-962,-948,-365,-264
-437,-2121,-984,-943,-438,-362
-407,-2140,-1046,-938,-560,-401
-373,-2194,-1159,-947,-738,-362
-351,-2240,-1227,-935,-910,-313
-255,-2276,-1258,-897,-1015,-339
-43,-2325,-1249,-844,-1038,-427
129,-2401,-1250,-782,-1030,-489
226,-2486,-1258,-698,-1083,-477
305,-2562,-1269,-610,-1155,-427
369,-2632,-1335,-533,-1232,-372
361,-2728,-1429,-440,-1292,-322
290,-2806,-1531,-338,-1322,-302
222,-2848,-1614,-208,-1352,-307
207,-2849,-1659,-64,-1390,-316
209,-2808,-1686,85,-1436,-321
288,-2690,-1647,239,-1464,-343
495,-2544,-1480,359,-1374,-437
674,-2484,-1382,430,-1170,-605
826,-2469,-1366,549,-1055,-731
1007,-2376,-1306,694,-1066,-680
1085,-2281,-1219,768,-1132,-465
1010,-2261,-1184,798,-1179,-255
950,-2229,-1176,849,-1209,-155
1023,-2180,-1214,900,-1222,-100
1143,-2107,-1246,940,-1260,1
1157,-2027,-1186,959,-1192,56
1126,-2000,-1152,969,-889,-111
1245,-1988,-1154,988,-554,-410
1385,-1984,-1168,1052,-310,-549
1454,-1902,-1121,1097,-269,-405
1473,-1839,-1045,1070,-272,-195
1495,-1828,-1024,1021,-207,-65
1510,-1812,-1019,992,-118,19
1450,-1838,-1068,959,-44,132
1404,-1836,-1124,959,-47,280
1365,-1780,-1130,979,-61,421
1271,-1724,-1107,989,3,487
1168,-1714,-1098,972,234,394
1172,-1746,-1129,942,523,189
1226,-1741,-1140,962,719,71
1240,-1687,-1098,976,808,118
1222,-1625,-1012,960,834,238
1184,-1580,-940,922,870,337
1155,-1568,-894,858,958,384
1149,-1629,-894,782,1072,406
1150,-1672,-893,733,1143,457
1106,-1702,-892,678,1182,541
979,-1801,-935,625,1225,629
809,-1943,-1004,604,1266,691
637,-2053,-1049,632,1278,733
461,-2145,-1071,690,1270,762
327,-2209,-1055,755,1244,770
213,-2222,-986,801,1252,735
102,-2252,-929,822,1312,641
22,-2267,-910,842,1356,523
-28,-2293,-892,845,1359,434
-126,-2332,-876,857,1344,397
-215,-2383,-865,880,1268,396
-311,-2394,-786,915,1085,419
-437,-2375,-736,937,1039,416
-590,-2409,-701,944,968,394
-683,-2434,-691,944,881,317
-733,-2447,-667,965,800,221
-842,-2432,-644,1000,718,132
-903,-2397,-619,1025,637,8
-923,-2353,-574,1054,551,-101
-938,-2277,-521,1118,446,-181
-925,-2149,-403,1189,332,-243
-957,-2030,-270,1204,284,-336
-905,-1985,-206,1160,245,-456
-854,-1947,-144,1144,165,-518
-793,-1850,-74,1135,0,-540
-730,-1789,-38,1091,-125,-615
-693,-1735,-37,1035,-194,-684
-651,-1702,-30,970,-289,-715
-630,-1680,-57,915,-371,-753
-624,-1634,-65,896,-479,-791
-631,-1601,-63,878,-580,-811
-609,-1570,-86,850,-672,-837
-499,-1515,-72,831,-751,-885
-356,-1454,-29,803,-809,-936
-224,-1402,-16,758,-843,-979
-107,-1347,5,713,-866,-1012
-4,-1296,23,671,-908,-1034
112,-1252,44,611,-933,-1054
233,-1219,36,543,-953,-1067
342,-1218,-5,492,-1010,-1052
452,-1238,-39,452,-1076,-996
579,-1215,-35,431,-1147,-928
680,-1169,5,408,-1178,-874
713,-1133,27,370,-1142,-852
715,-1092,57,326,-1068,-879
730,-1045,66,272,-982,-944
785,-1011,61,208,-933,-1012
888,-989,43,124,-902,-1046
1026,-1000,26,30,-887,-1030
1109,-1020,-11,-58,-868,-976
1135,-1045,-63,-125,-879,-900
1169,-1050,-91,-170,-880,-836
1236,-1057,-84,-221,-849,-797
1344,-1084,-84,-287,-780,-776
1444,-1116,-79,-359,-696,-755
1527,-1125,-78,-415,-620,-721
1574,-1132,-63,-471,-563,-661
1566,-1156,-60,-536,-517,-577
1533,-1174,-62,-604,-482,-496
1575,-1216,-72,-678,-467,-424
1661,-1280,-99,-742,-459,-335
1711,-1356,-152,-782,-393,-257
1712,-1452,-213,-793,-301,-205
1698,-1506,-243,-771,-239,-159
1671,-1498,-261,-749,-149,-118
1623,-1462,-242,-750,-79,-67
1601,-1408,-207,-780,-23,-7
1572,-1354,-204,-841,31,60
1575,-1340,-214,-918,52,141
1600,-1369,-239,-1001,70,232
1578,-1433,-242,-1078,100,344
1498,-1491,-229,-1134,129,452
1461,-1549,-258,-1182,180,509
1473,-1608,-325,-1222,229,555
1451,-1644,-417,-1237,277,608
1366,-1662,-482,-1242,320,634
1270,-1682,-580,-1252,435,607
1206,-1727,-690,-1260,545,588
1218,-1756,-763,-1242,593,631
1211,-1802,-799,-1195,586,754
1156,-1835,-784,-1126,540,912
1100,-1817,-693,-1053,517,1037
1027,-1808,-607,-1011,553,1100
916,-1839,-591,-1002,612,1112
839,-1846,-613,-994,669,1080
839,-1821,-622,-1008,744,1025
837,-1811,-651,-1036,840,977
802,-1799,-693,-1047,914,944
777,-1752,-696,-1028,957,927
784,-1656,-665,-1024,985,932
764,-1580,-645,-1036,1027,952
698,-1517,-612,-1045,1049,961
621,-1472,-617,-1083,1040,956
533,-1503,-727,-1174,973,1004
420,-1591,-880,-1277,842,1130
276,-1679,-1013,-1357,697,1265
134,-1785,-1135,-1387,617,1333
8,-1866,-1160,-1345,597,1302
-142,-1908,-1086,-1261,616,1195
-300,-1938,-979,-1194,627,1070
-406,-1942,-871,-1146,575,946
-484,-1962,-811,-1144,496,822
-553,-2053,-866,-1202,407,713
-596,-2174,-985,-1263,261,640
-658,-2262,-1077,-1280,87,599
-772,-2336,-1147,-1267,-44,528
-809,-2398,-1220,-1226,-138,384
-766,-2416,-1232,-1139,-236,235
-763,-2465,-1247,-1061,-320,109
-714,-2486,-1248,-984,-441,3
-641,-2479,-1205,-900,-588,-76
-586,-2498,-1202,-852,-695,-154
-533,-2540,-1249,-802,-808,-230
-502,-2554,-1279,-730,-927,-297
-465,-2554,-1317,-665,-1026,-354
-436,-2573,-1368,-585,-1144,-387
-382,-2555,-1393,-483,-1257,-392
-350,-2496,-1365,-379,-1369,-377
-398,-2441,-1345,-287,-1483,-357
-457,-2360,-1312,-203,-1578,-372
-468,-2262,-1256,-146,-1645,-443
-287,-2226,-1186,-121,-1652,-592
53,-2160,-1168,-104,-1597,-780
391,-2234,-1232,-113,-1481,-935
780,-2285,-1279,-22,-1401,-1003
1128,-2246,-1250,72,-1361,-972
1393,-2261,-1258,131,-1283,-898
1521,-2329,-1291,200,-1245,-705
1470,-2309,-1261,315,-1272,-457
1445,-2243,-1220,393,-1252,-284
1382,-2229,-1197,449,-1197,-145
1277,-2217,-1194,476,-1128,-49
1164,-2255,-1256,473,-958,-56
1036,-2307,-1342,505,-773,-131
991,-2329,-1403,578,-594,-244
1034,-2312,-1430,664,-450,-308
1036,-2257,-1416,744,-371,-257
902,-2234,-1415,788,-305,-157
784,-2219,-1422,846,-288,-93
749,-2150,-1381,922,-308,-67
741,-2068,-1324,956,-277,-52
755,-2060,-1314,949,-189,-63
768,-2058,-1314,982,-124,-87
766,-1982,-1246,1045,-91,-99
817,-1876,-1137,1072,-52,-107
869,-1849,-1076,1052,12,-99
951,-1820,-1050,1025,63,-68
1028,-1817,-1036,1002,108,-14
1060,-1792,-1026,989,128,81
1100,-1760,-1004,968,158,182
1049,-1783,-1047,940,217,262
906,-1800,-1091,940,302,289
848,-1780,-1095,961,410,250
848,-1777,-1096,968,548,187
875,-1776,-1081,964,676,139
925,-1771,-1043,955,789,128
949,-1756,-975,949,851,174
951,-1711,-895,935,872,264
886,-1683,-839,894,893,370
805,-1689,-816,849,899,460
777,-1691,-785,812,917,515
673,-1729,-777,761,955,562
533,-1805,-815,714,989,589
406,-1886,-838,692,1008,590
307,-1962,-855,683,1034,574
205,-2011,-829,689,1081,515
83,-2055,-805,699,1156,402
49,-2074,-763,720,1182,278
72,-2072,-726,727,1183,186
77,-2123,-752,708,1191,132
70,-2208,-794,710,1173,111
65,-2257,-785,754,1097,140
0,-2260,-706,800,995,205
-150,-2269,-640,810,918,242
-305,-2300,-629,799,874,212
-418,-2356,-653,802,848,126
-502,-2398,-704,841,828,30
-559,-2393,-711,901,799,-65
-553,-2368,-669,974,750,-147
-517,-2310,-583,1056,657,-186
-513,-2225,-473,1114,562,-199
-518,-2136,-370,1139,455,-198
-547,-2070,-253,1139,358,-212
-564,-2038,-204,1116,297,-252
-513,-2010,-192,1093,209,-293
-460,-1979,-177,1073,109,-318
-487,-1945,-185,1046,11,-322
-528,-1908,-206,1020,-87,-346
-536,-1869,-186,1006,-168,-388
-536,-1818,-147,992,-196,-458
-518,-1777,-109,984,-218,-551
-474,-1731,-61,976,-264,-637
-343,-1673,-6,954,-347,-677
-241,-1621,47,919,-447,-653
-207,-1587,63,848,-555,-607
-163,-1565,87,777,-650,-582
-103,-1527,99,706,-686,-608
6,-1496,106,625,-672,-676
82,-1512,91,551,-617,-753
124,-1553,47,507,-558,-824
219,-1561,38,516,-562,-863
