ax,ay,az,gx,gy,gz
-1267,-401,1052,373,528,339
-1383,-471,1115,374,649,368
-1479,-550,1115,300,641,419
-1542,-648,1097,252,489,382
-1645,-780,1103,294,300,337
-1719,-645,1078,351,64,339
-1805,-621,1216,879,-280,194
-1887,-599,1335,567,-189,539
-2040,-788,1243,-491,225,1167
-1962,-852,1315,-216,194,858
-1722,-617,1317,35,-77,8
-1475,-374,1305,-3,-259,-612
-1410,-232,1319,97,-216,-941
-1492,-132,1357,241,-65,-1176
-1451,-281,1401,208,145,-1389
-1349,-313,1255,-143,399,-1252
-1427,-615,1275,-1037,668,-344
-1555,-796,1342,-1625,811,752
-1581,-652,1324,-1742,864,1229
-1561,-565,1248,-1914,819,1178
-1442,-505,1118,-2050,673,811
-1479,-806,999,-2087,766,684
-1587,-1135,1012,-1704,784,406
-1327,-977,793,-989,409,-1023
-1217,-811,643,-831,259,-1950
-1343,-942,716,-976,153,-2048
-1577,-1392,769,-959,20,-1859
-1639,-1561,632,-1030,-131,-1488
-1466,-1434,617,-855,-375,-1092
-1408,-1041,654,-254,-360,-54
-1408,-592,682,-511,25,1324
-1490,-633,688,-1227,576,2134
-1718,-1060,787,-984,805,2723
-1868,-1224,827,-29,524,2727
-1764,-1283,731,435,89,1510
-1566,-1420,773,1335,-545,-480
-1410,-602,689,2764,-993,-1820
-1782,-474,886,1821,-286,-686
-1837,-605,1010,111,0,328
-1433,-653,1013,557,-362,-136
-1323,-270,858,775,-136,-18
-1584,-340,1001,-289,519,1342
-1741,-565,1013,-1093,864,2149
-1695,-887,971,-1170,625,1506
-1540,-1023,946,-211,-127,314
-1239,-520,756,422,-463,-706
-1458,-475,677,220,15,-342
-1920,-1175,1018,187,180,625
-1852,-1048,1013,982,-567,251
-1595,-486,887,977,-820,-198
-1548,-421,979,486,-499,-259
-1615,-601,1051,214,-252,-79
-1560,-576,1026,79,-154,46
-1509,-477,1025,20,-7,132
-1517,-544,1016,-58,116,236
-1544,-687,984,-108,162,309
-1590,-711,952,-106,190,325
-1635,-618,964,-123,194,371
-1657,-554,985,-183,177,462
-1696,-589,989,-260,158,524
-1722,-613,967,-294,128,512
-1723,-600,939,-291,114,460
-1688,-604,904,-322,82,390
-1627,-601,881,-345,42,338
-1604,-572,926,-300,-5,299
-1601,-627,938,-240,-53,183
-1580,-567,871,-219,-50,164
-1659,-634,914,-206,7,221
-1772,-820,913,-177,14,144
-1901,-746,906,-167,-104,54
-2000,-630,969,-147,-213,54
-1912,-646,988,-146,-324,-23
-1726,-661,973,-173,-439,-133
-1486,-679,911,-56,-567,-318
-1341,-719,876,201,-596,-587
-1297,-700,886,331,-564,-863
-1314,-585,954,419,-541,-1047
-1360,-401,1044,515,-464,-1051
-1368,-334,1071,591,-295,-871
-1420,-457,1037,535,-144,-711
-1655,-695,1019,410,-159,-670
-1869,-974,996,371,-350,-703
-1890,-1115,950,364,-607,-629
-1654,-1069,964,544,-779,-581
-1424,-954,972,720,-821,-561
-1329,-774,1010,719,-802,-434
-1329,-652,1147,716,-755,-371
-1424,-577,1231,704,-668,-385
-1474,-550,1266,582,-577,-445
-1316,-502,1128,393,-463,-529
-1187,-440,1070,279,-304,-558
-1340,-504,1224,188,-215,-505
-1587,-619,1249,68,-220,-517
-1649,-614,1224,-29,-257,-597
-1544,-716,1226,-128,-268,-617
-1404,-752,1191,-223,-273,-578
-1293,-805,1162,-212,-295,-647
-1277,-887,1171,-120,-286,-733
-1332,-848,1246,-121,-315,-761
-1329,-858,1254,-247,-395,-852
-1041,-776,1236,-200,-407,-1010
-1051,-731,1194,-91,-322,-1094
-1291,-724,1187,-33,-317,-1149
-1382,-789,1164,14,-496,-1241
-1292,-867,1162,112,-585,-1176
-1248,-905,1143,86,-492,-803
-1274,-977,1142,-53,-315,-283
-1272,-1014,1160,-89,-170,105
-1228,-1022,1171,-19,-155,312
-1223,-971,1223,42,-181,424
-1272,-1051,1307,46,-186,348
-1210,-1052,1266,18,-150,142
-1116,-930,1197,-40,-2,133
-1097,-980,1198,-98,177,361
-1123,-996,1165,-81,296,690
-1219,-944,1145,-33,397,1031
-1299,-946,1162,20,394,1099
-1337,-936,1163,96,322,981
-1361,-974,1195,144,257,891
-1379,-929,1190,181,224,897
-1398,-815,1196,224,225,918
-1439,-790,1225,213,249,950
-1475,-808,1240,184,235,975
-1484,-701,1250,134,202,921
-1453,-542,1239,-69,257,826
-1427,-470,1263,-397,370,813
-1424,-520,1286,-560,407,798
-1382,-492,1290,-598,459,636
-1418,-417,1290,-551,659,444
-1495,-613,1338,-496,690,287
-1558,-403,1153,-719,866,624
-1598,-385,1116,-1087,972,538
-1595,-673,1101,-952,646,-465
-1553,-523,1050,-498,250,-1547
-1556,-498,1267,-665,159,-2451
-1807,-696,1583,-1162,161,-2995
-1879,-1317,1312,-1540,-251,-3332
-1447,-1205,969,-1172,-567,-3482
-1182,-1163,817,-935,-577,-2737
-1124,-1326,769,-710,-530,-1604
-1160,-1372,797,-363,-420,-351
-1128,-1349,815,-158,-492,301
-1032,-1283,769,-59,-568,268
-1023,-1206,785,-163,-580,75
-1123,-1130,910,-236,-708,-313
-1332,-1206,1096,1,-559,-455
-1411,-1246,1208,222,-397,-385
-1293,-1197,1138,-148,-393,-395
-1171,-1151,1144,-305,-419,-414
-1140,-1023,1128,-155,-423,-363
-1106,-1013,1112,-192,-327,-179
-1071,-1093,1115,-231,-152,-7
-1060,-1260,1099,-337,-82,190
-1108,-1288,1190,-311,-280,397
-1079,-1002,1303,-235,-887,646
-931,-650,1031,-242,-1379,1154
-978,-938,1019,-213,-953,1496
-1038,-1179,1154,-126,-478,1208
-1083,-1163,1136,49,-324,784
-1193,-1052,1073,-13,-251,550
-1198,-1172,1022,-412,-270,242
-1227,-1213,1094,-225,-275,149
-1248,-1094,1113,30,-245,-50
-1253,-1022,1112,-31,-181,-485
-1317,-1007,1172,-63,-74,-687
-1380,-1101,1222,-108,53,-438
-1393,-1139,1208,-222,156,-149
-1304,-1112,1242,-240,201,-223
-1259,-852,1315,-104,432,-865
-1254,-791,1280,-454,883,-1514
-1215,-995,1160,-691,1006,-1889
-1189,-1163,1100,-565,807,-1925
-1171,-1302,1104,-391,559,-1727
-1175,-1393,1099,-317,369,-1411
-1153,-1416,1085,-269,225,-1029
-1138,-1428,1070,-221,144,-737
-1133,-1447,1029,-205,122,-585
-1122,-1485,988,-210,62,-436
-1141,-1497,936,-144,-77,-259
-1130,-1486,917,-77,-263,-153
-1046,-1445,910,-63,-356,-85
-980,-1384,917,-23,-299,-7
-962,-1434,967,50,-174,58
-980,-1545,992,120,-214,181
-1027,-1809,1002,253,-404,408
-1030,-1985,952,536,-701,912
-1070,-1584,905,793,-1002,1820
-1109,-985,996,791,-899,2713
-1084,-836,1176,639,-645,3027
-1038,-877,1238,551,-497,2444
-981,-822,1225,497,-344,1484
-994,-755,1228,410,-146,789
-1102,-784,1234,303,33,420
-1238,-875,1246,95,188,300
-1222,-940,1218,-27,292,-36
-1193,-921,1229,-67,511,-231
-1233,-939,1319,-168,747,-304
-1267,-944,1355,-337,978,-593
-1287,-930,1292,-461,1214,-1016
-1313,-976,1186,-455,1197,-1384
-1312,-1105,1157,-499,885,-1622
-1250,-1212,1116,-448,527,-1801
-1213,-1304,1023,-417,325,-1752
-1188,-1424,975,-407,77,-1551
-1204,-1438,1036,-292,-24,-1252
-1198,-1356,1068,-127,170,-948
-1162,-1339,984,-69,281,-784
-1131,-1386,936,-105,216,-616
-1094,-1423,952,-184,180,-471
-1057,-1415,947,-163,223,-395
-1044,-1372,924,-103,213,-339
-1059,-1343,933,-78,125,-252
-1083,-1345,969,-64,53,-145
-1085,-1333,1000,-59,47,-60
-1103,-1308,978,-57,63,-48
-1108,-1319,952,-37,7,-71
-1097,-1371,957,-14,-99,-37
-1089,-1438,978,5,-188,69
-1091,-1416,971,34,-245,171
-1089,-1353,989,69,-320,222
-1174,-1236,1039,71,-387,303
-1269,-1288,1121,42,-312,723
-1130,-1376,1037,-49,-353,801
-1054,-1470,995,-23,-364,517
-1108,-1472,1023,85,-321,420
-1135,-1368,1055,138,-328,507
-1140,-1300,1085,98,-307,610
-1113,-1208,1110,167,-242,470
-1104,-1095,1089,165,-131,245
-1126,-1020,1070,92,-60,190
-1180,-1105,1097,4,-7,188
-1213,-1250,1080,-20,69,118
-1212,-1283,1040,-14,115,47
-1174,-1267,1080,-22,237,-12
-1135,-1217,1177,-104,540,-168
-1125,-1102,1172,-309,944,-351
-1147,-1133,1044,-537,1122,-422
-1175,-1267,947,-595,1029,-252
-1159,-1409,940,-424,841,63
-1092,-1504,879,-140,703,324
-1130,-1357,931,178,679,446
-1271,-1166,1001,218,773,402
-1388,-1101,1015,-19,725,232
-1392,-1173,1036,-301,470,92
-1320,-1208,985,-372,252,48
-1272,-1264,965,-331,199,77
-1273,-1263,901,-318,198,207
-1282,-1222,864,-367,80,373
-1283,-1225,849,-364,-10,522
-1293,-1332,801,-177,-9,524
-1263,-1400,800,59,-127,368
-1261,-1309,857,150,-436,182
-1213,-1147,838,78,-743,-3
-1148,-1207,789,98,-797,126
-1320,-1722,874,163,-807,777
-1353,-1497,864,281,-1035,1349
-1309,-1329,849,426,-1190,1501
-1272,-1209,935,576,-1219,1305
-1308,-1029,1069,635,-910,1088
-1378,-898,1166,563,-398,798
-1409,-873,1158,343,26,446
-1465,-803,1204,135,289,178
-1469,-821,1228,-10,641,-43
-1345,-953,1210,-173,922,-258
-1269,-974,1161,-359,968,-456
-1353,-929,1054,-454,915,-750
-1385,-983,1003,-507,710,-1234
-1302,-1183,905,-517,567,-1915
-1177,-1444,779,-407,562,-2489
-1091,-1606,671,-153,620,-2853
-1072,-1666,659,154,520,-2943
-1014,-1664,718,374,322,-2825
-900,-1629,754,539,221,-2535
-830,-1536,760,771,177,-2141
-843,-1452,741,854,31,-1719
-885,-1442,775,830,-202,-1290
-894,-1474,849,852,-414,-855
-899,-1562,909,958,-540,-323
-958,-1547,958,1050,-686,370
-1034,-1446,1040,1029,-968,929
-1119,-1382,1139,897,-1055,1409
-1185,-1395,1217,692,-926,1770
-1189,-1375,1241,502,-719,1917
-1163,-1366,1269,408,-523,1970
-1182,-1260,1316,376,-399,2110
-1161,-1150,1301,520,-428,2391
-1132,-994,1222,629,-102,2480
-1127,-878,1204,471,241,2329
-1135,-825,1163,285,331,2147
-1148,-836,1114,42,476,1974
-1186,-895,1118,-218,674,1732
-1250,-900,1122,-391,823,1408
-1310,-893,1109,-463,844,950
-1403,-704,1226,-386,740,444
-1533,-533,1391,-307,942,407
-1418,-717,1144,-459,1205,428
-1344,-853,1027,-621,1055,177
-1430,-988,1139,-666,1083,-88
-1472,-1048,1042,-580,1364,-303
-1523,-1054,864,-504,1369,-421
-1580,-1177,785,-467,968,-612
-1543,-1302,801,-365,484,-841
-1415,-1357,803,-193,156,-986
-1339,-1340,782,-10,-78,-1080
-1332,-1249,860,238,-380,-1338
-1379,-1130,918,553,-645,-1802
-1352,-1137,903,706,-795,-2251
-1216,-1163,860,770,-913,-2439
-1105,-1192,881,746,-936,-2202
-1066,-1231,925,656,-807,-1675
-1091,-1291,953,567,-617,-1156
-1093,-1331,961,482,-503,-830
-1071,-1385,970,350,-457,-510
-1052,-1513,987,239,-426,-59
-988,-1669,971,273,-348,532
-994,-1568,934,446,-333,1309
-1101,-1297,989,574,-417,2053
-1212,-1089,1070,599,-463,2432
-1257,-955,1134,617,-465,2389
-1260,-861,1186,634,-375,2134
-1278,-794,1218,556,-229,1838
-1312,-796,1240,391,-103,1514
-1367,-867,1243,103,77,1098
-1450,-804,1284,-163,228,702
-1465,-726,1346,-216,240,512
-1426,-753,1335,-271,412,237
-1401,-851,1257,-362,621,-103
-1346,-868,1169,-472,698,-475
-1322,-894,1125,-571,736,-801
-1287,-938,1146,-642,807,-1020
-1282,-956,1101,-664,1044,-1234
-1321,-1032,960,-625,1138,-1416
-1315,-1132,912,-566,887,-1412
-1271,-1237,907,-473,639,-1291
-1276,-1354,855,-328,470,-1107
-1301,-1389,884,-168,247,-962
-1303,-1357,893,5,29,-998
-1263,-1300,917,153,-151,-1021
-1199,-1273,913,209,-212,-937
-1149,-1319,887,227,-252,-831
-1153,-1337,882,258,-351,-729
-1154,-1303,892,259,-413,-547
-1133,-1332,888,236,-473,-231
-1144,-1455,922,234,-523,230
-1164,-1540,935,290,-540,815
-1191,-1467,960,372,-566,1465
-1224,-1264,998,392,-595,1968
-1258,-1046,1059,320,-571,2123
-1257,-936,1120,214,-458,1976
-1282,-904,1145,109,-309,1695
-1297,-877,1152,37,-203,1408
-1318,-858,1174,-9,-80,1152
-1344,-831,1218,-144,186,828
-1351,-672,1232,-220,462,504
-1368,-708,1186,-215,669,204
-1380,-765,1288,-312,961,-243
-1440,-812,1179,-444,1400,-869
-1537,-858,1030,-507,1392,-1419
-1565,-940,1008,-549,1103,-1998
-1544,-1142,994,-575,740,-2570
-1453,-1367,931,-566,324,-2768
-1316,-1472,823,-427,84,-2457
-1238,-1495,813,-223,-49,-1829
-1154,-1440,814,-109,-225,-1268
-1053,-1397,796,-61,-275,-912
-974,-1427,753,-34,-253,-647
-919,-1460,704,-3,-336,-351
-953,-1445,699,77,-549,-67
-1051,-978,778,234,-855,284
-1257,-1253,1046,263,-762,664
-1493,-1836,1281,39,-463,589
-1554,-1946,1133,-2,-461,370
-1324,-1483,974,241,-502,356
-1132,-1092,987,449,-287,619
-1099,-1034,1010,386,-109,823
-1149,-1040,1040,225,26,774
-1179,-990,1041,83,119,521
-1164,-934,1038,-72,184,263
-1116,-903,1019,-149,191,93
-1070,-938,964,-140,155,-2
-1021,-1019,928,-147,118,-25
-1011,-1105,922,-159,109,-24
-1081,-1093,1001,-174,173,-65
-1418,-1261,1159,-154,469,145
-1501,-1447,1064,-165,687,748
-1366,-1394,887,-293,596,942
-1444,-1420,963,-274,531,809
-1419,-1301,973,-190,437,745
-1336,-1161,934,-171,372,680
-1358,-1102,942,-172,412,686
-1410,-1079,991,-180,579,895
-1413,-985,1050,-214,901,1066
-1376,-897,1031,-267,1271,931
-1361,-939,905,-340,1427,567
-1377,-1112,801,-388,1324,198
-1401,-1283,743,-322,1088,-46
-1409,-1286,737,-166,879,-124
-1413,-1258,689,-7,631,-270
-1417,-1296,712,153,262,-581
-1431,-1288,716,391,-87,-1089
-1451,-1237,774,679,-404,-1634
-1455,-1242,770,915,-652,-2123
-1379,-1247,768,1063,-886,-2350
-1288,-1223,782,1101,-985,-2220
-1286,-1186,857,1014,-1066,-1915
-1320,-1232,939,768,-1175,-1702
-1199,-1276,893,441,-1125,-1558
-1060,-1356,866,212,-979,-1200
-1024,-1443,893,101,-848,-650
-1049,-1485,906,51,-692,-98
-1072,-1427,948,64,-576,333
-1080,-1389,967,36,-500,582
-1100,-1496,926,70,-433,785
-1130,-1645,916,323,-372,1168
-1144,-1617,918,646,-470,1800
-1157,-1380,949,891,-635,2436
-1188,-1097,1046,987,-606,2751
-1207,-951,1122,855,-414,2670
-1243,-1111,1113,457,-120,2220
-1276,-981,1108,-50,204,1660
-1300,-694,1166,-158,353,1499
-1274,-611,1232,-111,346,1380
-1286,-595,1270,-118,647,1032
-1373,-711,1245,-253,1003,374
-1425,-718,1113,-326,933,-279
-1437,-768,1146,-361,851,-903
-1461,-830,1198,-357,1013,-1477
-1479,-896,1053,-313,1128,-1947
-1458,-1086,908,-235,896,-2161
-1407,-1317,885,-191,469,-1964
-1355,-1416,869,-68,124,-1547
-1319,-1399,876,118,-150,-1120
-1250,-1353,899,209,-322,-836
-1173,-1339,887,265,-409,-701
-1134,-1352,853,350,-474,-648
-1102,-1348,846,405,-540,-570
-1099,-1358,859,452,-608,-375
-1124,-1352,871,485,-694,-54
-1142,-1307,921,472,-773,281
-1160,-1263,954,428,-774,560
-1183,-1219,993,381,-757,816
-1189,-1181,1019,355,-722,1046
-1222,-1187,1021,196,-423,1272
-1388,-1457,1190,-9,-148,1505
-1373,-1398,1143,264,-201,1843
-1357,-1102,1080,458,-125,2171
-1405,-846,1144,343,25,2179
-1351,-889,1124,79,145,1843
-1367,-889,1142,-382,273,1093
-1334,-709,1199,-278,157,985
-1237,-538,1174,-232,149,788
-1265,-442,1312,-152,365,475
-1294,-446,1349,-268,893,-113
-1365,-564,1251,-491,1389,-1009
-1464,-674,1129,-560,1529,-1956
-1531,-844,965,-482,1301,-2650
-1526,-1087,932,-255,793,-2932
-1470,-1319,926,-2,379,-2794
-1387,-1429,903,195,146,-2278
-1312,-1454,886,326,-49,-1613
-1247,-1445,894,375,-235,-1083
-1177,-1401,889,400,-358,-802
-1109,-1370,874,385,-391,-635
-1055,-1387,839,298,-483,-374
-1039,-1444,806,216,-622,51
-1047,-1429,817,225,-752,499
-1093,-1365,885,296,-867,896
-1135,-1294,968,355,-897,1209
-1189,-1222,1046,366,-806,1378
-1245,-1226,1100,357,-670,1430
-1274,-1288,1126,400,-494,1535
-1354,-1178,1143,459,-222,1910
-1416,-909,1173,409,9,2408
-1404,-698,1189,272,73,2525
-1383,-639,1208,51,144,2254
-1378,-656,1197,-187,161,1770
-1393,-716,1167,-341,116,1239
-1405,-801,1180,-377,85,728
-1393,-686,1273,-392,238,252
-1333,-625,1219,-385,639,-231
-1337,-647,1255,-476,986,-869
-1399,-660,1119,-525,1202,-1690
-1426,-781,1061,-453,1015,-2376
-1372,-981,1050,-314,800,-2792
-1345,-1163,942,-92,561,-2865
-1318,-1310,898,163,124,-2592
-1295,-1383,908,355,-224,-2165
-1284,-1376,925,417,-351,-1672
-1257,-1348,940,388,-387,-1238
-1204,-1353,940,286,-388,-919
-1132,-1409,888,159,-409,-608
-1050,-1464,835,79,-485,-161
-1016,-1459,823,75,-660,401
-1068,-1349,897,98,-862,904
-1123,-1241,983,125,-886,1175
-1162,-1151,1059,194,-792,1224
-1201,-1105,1129,282,-692,1156
-1235,-1118,1171,344,-570,1074
-1272,-1129,1188,396,-418,1076
-1298,-1028,1202,441,-276,1186
-1345,-903,1231,411,-174,1301
-1375,-838,1254,281,-84,1291
-1369,-831,1253,107,2,1138
-1365,-860,1241,-48,75,896
-1340,-873,1248,-163,167,636
-1296,-851,1256,-245,349,372
-1263,-832,1262,-290,582,56
-1259,-799,1251,-291,869,-314
-1301,-715,1182,-313,1144,-757
-1378,-774,1075,-357,1198,-1310
-1461,-962,975,-347,883,-1799
-1423,-1140,982,-229,333,-2060
-1343,-1250,983,-57,-104,-2036
-1267,-1324,1010,87,-367,-1774
-1213,-1346,1029,215,-452,-1448
-1156,-1317,1014,257,-400,-1096
-1103,-1280,1000,202,-290,-739
-1053,-1299,970,97,-214,-402
-1038,-1336,940,-2,-208,-35
-1059,-1376,922,-61,-244,360
-1106,-1386,950,-44,-318,723
-1152,-1349,1011,24,-332,975
-1176,-1280,1045,64,-253,1125
-1209,-1243,1076,62,-191,1181
-1215,-1225,1094,83,-198,1164
-1222,-1173,1111,160,-196,1167
-1262,-1085,1134,206,-139,1219
-1289,-988,1154,193,-76,1247
-1320,-880,1174,148,-38,1196
-1339,-778,1204,67,10,1055
-1354,-729,1225,-43,135,817
-1370,-763,1221,-142,272,506
-1388,-802,1234,-187,367,178
-1360,-750,1242,-215,557,-170
-1369,-823,1119,-261,740,-498
-1407,-923,1076,-285,601,-659
-1382,-994,1097,-297,482,-759
-1339,-1080,1051,-312,440,-806
-1321,-1140,1005,-311,340,-717
-1292,-1192,977,-290,228,-562
-1261,-1231,954,-248,136,-397
-1241,-1242,933,-199,70,-245
-1232,-1252,912,-149,-7,-109
-1223,-1265,918,-88,-104,44
-1235,-1250,929,-24,-172,207
-1260,-1221,941,32,-216,340
-1297,-1182,977,75,-264,428
-1328,-1108,1028,105,-299,472
-1344,-1028,1084,113,-266,449
-1340,-935,1130,79,-128,331
-1357,-911,1083,25,23,138
-1387,-966,1069,-13,16,10
-1399,-1032,1089,-25,-10,-29
-1380,-1049,1078,-31,25,-44
-1370,-1061,1061,-54,47,-67
-1366,-1103,1035,-75,17,-85
-1342,-1146,1015,-62,-7,-94
-1302,-1139,1011,-30,-28,-77
-1273,-1093,1018,-1,-32,-49
-1260,-1055,1010,9,-17,-31
-1255,-1058,1016,9,-27,-6
-1273,-1083,1022,16,-44,34
-1299,-1090,1039,29,-52,72
-1323,-1088,1046,34,-64,79
-1346,-1082,1054,33,-81,64
-1351,-1079,1061,27,-95,60
-1348,-1073,1067,28,-112,80
-1345,-1054,1060,21,-138,111
-1328,-1047,1054,2,-160,138
-1299,-1142,1052,2,-145,183
-1278,-1271,1021,58,-112,332
-1252,-1418,981,155,-118,668
-1216,-1323,923,187,-183,1311
-1272,-1063,963,76,-217,1980
-1391,-849,1028,-89,-25,2307
-1419,-714,1053,-295,142,2285
-1466,-679,1059,-462,217,2038
-1498,-646,1090,-487,173,1619
-1437,-702,1156,-482,156,1147
-1458,-710,1176,-431,245,779
-1441,-452,1335,-368,533,297
-1444,-372,1300,-391,1166,-590
-1524,-439,1257,-486,1527,-1521
-1612,-585,1065,-543,1539,-2312
-1639,-800,895,-519,1064,-2742
-1557,-1135,873,-408,486,-2761
-1418,-1331,831,-117,159,-2470
-1342,-1403,788,67,85,-1935
-1327,-1410,764,103,18,-1349
-1278,-1396,758,40,-77,-906
-1204,-1384,742,-8,-110,-581
-1150,-1338,719,15,-163,-304
-1157,-1273,713,74,-347,-28
-1263,-1219,816,273,-631,105
-1320,-1171,941,466,-721,-41
-1321,-1116,935,558,-636,-238
-1368,-1081,937,596,-695,-260
-1405,-1097,1021,537,-832,-187
-1398,-1164,1055,378,-795,-108
-1354,-1212,1036,237,-709,37
-1331,-1213,1022,181,-705,257
-1285,-1181,1019,171,-727,470
-1242,-1165,1034,148,-689,648
-1203,-1153,1049,134,-628,766
-1178,-1095,1075,171,-510,829
-1198,-1054,1090,176,-355,866
-1227,-1103,1116,176,-209,888
-1263,-1118,1100,203,-75,951
-1330,-1001,1112,214,38,1060
-1410,-899,1145,167,183,1190
-1457,-859,1170,55,320,1267
-1451,-839,1164,-104,423,1238
-1424,-787,1182,-244,491,1057
-1370,-669,1237,-336,646,607
-1344,-656,1132,-421,850,-48
-1383,-709,1125,-440,766,-603
-1370,-692,1248,-426,809,-1210
-1326,-624,1170,-458,1109,-2057
-1396,-783,895,-457,961,-2937
-1395,-1212,813,-385,290,-3337
-1296,-1532,818,-165,-157,-3124
-1218,-1642,803,108,-234,-2516
-1211,-1622,835,226,-147,-1750
-1192,-1530,868,188,-144,-1040
-1113,-1503,836,53,-162,-494
-1047,-1494,803,61,-189,-11
-1045,-1444,810,141,-307,483
-1082,-1365,831,171,-483,972
-1130,-1284,898,255,-622,1330
-1211,-1196,1013,395,-653,1493
-1282,-1095,1095,454,-639,1474
-1314,-1018,1131,434,-581,1306
-1346,-1011,1158,362,-467,1083
-1351,-1046,1159,271,-328,909
-1349,-1072,1135,213,-192,847
-1358,-1011,1110,163,-53,912
-1376,-927,1110,71,92,1029
-1384,-894,1107,-60,186,1071
-1374,-901,1098,-200,224,998
-1361,-931,1077,-293,240,855
-1347,-958,1056,-325,241,693
-1338,-949,1061,-303,201,513
-1331,-929,1082,-237,164,304
-1337,-940,1058,-150,123,87
-1361,-975,1046,-92,38,-72
-1392,-940,1092,-80,23,-207
-1382,-813,1147,-117,180,-472
-1374,-773,1130,-216,382,-860
-1405,-904,1063,-327,414,-1241
-1401,-1088,984,-341,233,-1444
-1360,-1222,965,-249,42,-1331
-1312,-1251,963,-156,-46,-972
-1287,-1270,954,-132,-37,-618
-1281,-1300,927,-143,-10,-372
-1231,-1289,878,-122,-77,-132
-1226,-1204,775,-87,-269,92
-1263,-1147,870,-22,-694,153
-1268,-1144,1034,32,-926,-24
-1253,-1153,1069,65,-823,-244
-1240,-1117,1069,93,-718,-301
-1255,-1109,1108,96,-665,-226
-1264,-1119,1137,85,-590,-100
-1255,-1115,1154,68,-505,37
-1245,-1118,1163,47,-423,143
-1233,-1104,1163,13,-337,217
-1220,-1112,1158,-22,-227,271
-1221,-1169,1155,-44,-79,327
-1238,-1198,1131,-43,94,420
-1244,-1145,1101,-36,236,552
-1251,-1077,1096,-67,352,670
-1253,-1036,1089,-133,428,710
-1269,-1025,1076,-207,465,677
-1301,-1026,1049,-257,471,612
-1334,-1017,1038,-289,422,546
-1353,-1041,1061,-317,385,515
-1354,-1063,1037,-338,398,564
-1384,-1061,1015,-371,380,685
-1427,-1026,1003,-407,268,816
-1462,-939,1017,-451,60,847
-1463,-930,1076,-501,-156,754
-1433,-997,1082,-517,-272,656
-1417,-1006,1025,-494,-334,615
-1417,-926,1019,-443,-378,533
-1410,-896,1061,-427,-346,347
-1379,-930,1048,-451,-259,121
-1348,-1007,1006,-462,-134,-51
-1317,-1126,954,-442,-10,-101
-1314,-1171,897,-380,16,-34
-1343,-1157,874,-310,-5,45
-1326,-1148,858,-253,-70,70
-1291,-1167,876,-188,-199,63
-1279,-1190,883,-120,-249,26
-1287,-1174,890,-42,-242,-40
-1271,-1144,884,17,-269,-159
-1285,-1093,915,68,-347,-358
-1299,-978,1115,66,-348,-676
-1325,-895,1191,-3,-34,-1155
-1354,-946,1089,-35,253,-1637
-1408,-1045,1029,34,209,-1860
-1418,-1153,1040,86,40,-1800
-1356,-1226,1034,116,-28,-1530
-1297,-1243,1019,138,-27,-1097
-1267,-1237,1014,107,14,-651
-1246,-1249,980,6,71,-303
-1214,-1267,951,-98,100,-56
-1185,-1287,942,-133,89,154
-1181,-1314,967,-77,88,329
-1179,-1402,982,20,156,530
-1191,-1387,932,114,285,933
-1250,-1277,916,115,410,1494
-1303,-1123,930,2,407,1942
-1337,-998,968,-134,343,2068
-1354,-938,1000,-248,321,1894
-1372,-912,1010,-316,331,1551
-1386,-897,1014,-351,328,1146
-1414,-905,984,-342,264,722
-1431,-935,976,-260,162,329
-1432,-955,992,-157,92,49
-1437,-1009,970,-90,78,-122
-1442,-1065,926,-56,68,-182
-1450,-1072,918,-65,45,-136
-1445,-1049,918,-91,26,-77
-1420,-1049,918,-107,-13,-83
-1387,-1072,904,-88,-84,-175
-1369,-1069,919,-40,-159,-327
-1358,-1051,931,-14,-191,-505
-1375,-1037,939,-5,-186,-616
-1428,-1043,961,-3,-162,-627
-1434,-1002,950,-23,-159,-567
-1426,-958,934,-80,-221,-461
-1413,-919,889,-163,-377,-346
-1394,-1015,945,-275,-543,-182
-1359,-1224,975,-357,-458,109
-1389,-1316,966,-271,-436,680
-1455,-1132,990,-71,-527,1488
-1482,-1001,1000,-11,-516,2101
-1442,-1112,1008,-125,-437,2110
-1372,-1140,1010,-77,-357,1421
-1329,-981,1002,39,-123,657
-1345,-949,1011,-54,122,283
-1391,-973,1001,-129,256,119
-1407,-1013,986,-120,340,-33
-1367,-1058,925,-74,426,-142
-1350,-1008,906,-52,383,-144
-1371,-1010,940,-82,288,-232
-1383,-1019,958,-54,240,-403
-1370,-1014,942,-3,181,-527
-1351,-1049,1007,40,79,-708
-1286,-967,1282,68,211,-1193
-1356,-793,1096,128,631,-2136
-1505,-775,981,179,371,-3116
-1570,-932,1072,158,-127,-3794
-1475,-1140,1014,180,-358,-4055
-1307,-1266,858,258,-358,-3804
-1193,-1384,824,320,-236,-3120
-1169,-1485,846,294,-87,-2252
-1166,-1501,902,130,117,-1371
-1133,-1473,911,-139,304,-578
-1061,-1439,854,-342,360,16
-1010,-1450,821,-386,338,472
-1007,-1469,812,-426,328,905
-1035,-1483,804,-387,284,1253
-1085,-1462,815,-201,225,1407
-1113,-1510,846,-39,149,1412
-1147,-1561,822,75,139,1450
-1230,-1509,823,133,211,1655
-1280,-1386,855,140,275,1968
-1321,-1173,906,112,320,2242
-1339,-999,950,-16,372,2316
-1351,-909,967,-220,396,2176
-1381,-901,975,-415,417,1887
-1423,-923,989,-510,470,1521
-1463,-957,980,-463,563,1105
-1472,-988,958,-218,502,588
-1447,-895,977,106,479,-103
-1481,-924,918,-38,629,-492
-1486,-944,904,-87,593,-707
-1514,-1000,845,-30,416,-878
-1507,-1105,764,-43,180,-835
-1456,-1189,742,-20,40,-767
-1414,-1226,729,1,-9,-696
-1375,-1235,709,-36,-49,-554
-1344,-1253,686,-85,-84,-374
-1333,-1272,690,-98,-119,-182
-1341,-1261,719,-82,-143,11
-1367,-1236,741,-55,-148,137
-1400,-1214,763,-37,-148,166
-1421,-1197,793,-24,-120,143
-1425,-1172,813,-7,-85,102
-1430,-1136,833,-4,-55,61
-1444,-1103,843,-12,-43,32
-1447,-1101,844,-20,-47,20
-1445,-1100,842,-24,-60,32
-1442,-1104,833,-34,-68,51
-1433,-1123,819,-56,-56,48
-1432,-1162,804,-67,-36,33
-1437,-1187,793,-59,-27,24
-1424,-1184,783,-40,-28,26
-1399,-1174,786,-26,-38,29
-1392,-1161,794,-20,-38,39
-1384,-1149,794,-16,-35,58
-1387,-1128,800,-19,-32,82
-1403,-1118,813,-37,-3,107
-1418,-1123,824,-63,26,132
-1417,-1123,824,-90,34,145
-1422,-1122,822,-113,47,148
-1432,-1139,818,-122,51,148
-1454,-1170,795,-118,55,135
-1482,-1202,777,-124,102,144
-1495,-1263,748,-167,187,275
-1481,-1265,709,-206,199,549
-1458,-1146,734,-200,96,783
-1445,-1024,775,-195,-5,782
-1435,-979,741,-187,-35,601
-1451,-944,701,-190,-82,416
-1543,-1035,693,-219,-96,300
-1637,-1061,541,-290,202,456
-1686,-987,424,-456,237,872
-1718,-1029,576,-553,-307,1091
-1679,-1109,751,-544,-724,922
-1525,-1205,816,-490,-809,555
-1351,-1242,845,-353,-785,198
-1268,-1154,912,-210,-655,30
-1273,-1057,971,-166,-455,-9
-1295,-1011,1019,-118,-350,-48
-1327,-991,1025,8,-317,-75
-1341,-1023,999,80,-281,-142
-1345,-1058,949,37,-190,-201
-1399,-1114,921,15,-16,-197
-1464,-1133,878,61,129,-181
-1465,-1153,873,127,152,-161
-1446,-1234,876,212,126,-152
-1446,-1256,908,393,-9,-196
-1406,-1172,998,699,-362,-265
-1375,-1082,1070,986,-767,-398
-1356,-966,1106,1050,-865,-544
-1382,-933,1060,967,-612,-709
-1448,-921,937,843,-241,-907
-1562,-836,738,689,96,-1012
-1677,-749,642,508,229,-980
-1752,-665,706,203,557,-739
-1729,-792,875,-276,915,-151
-1606,-929,856,-718,957,515
-1523,-962,820,-961,1008,899
-1490,-1032,785,-1132,981,933
-1526,-1250,756,-1166,832,726
-1509,-1411,709,-753,470,130
-1508,-1288,570,-374,456,-332
-1498,-1291,559,-461,477,-181
-1430,-1262,554,-407,219,-98
-1385,-1193,672,-191,-32,-122
-1310,-1132,829,-104,-249,-102
-1238,-1061,922,-59,-354,-34
-1220,-1030,972,-13,-336,37
-1249,-1081,1015,46,-323,47
-1322,-1163,955,99,-317,11
-1389,-1239,798,110,-231,-35
-1439,-1337,851,277,-272,-93
-1480,-1319,933,566,-636,-129
-1540,-1283,907,807,-860,-215
-1473,-1234,809,819,-778,-410
-1388,-1141,802,717,-610,-555
-1330,-1055,778,632,-471,-600
-1327,-957,751,578,-393,-543
-1389,-941,788,453,-398,-444
-1483,-998,768,260,-359,-354
-1577,-991,705,73,-194,-300
-1581,-1017,829,-111,99,-227
-1527,-1025,782,-296,275,-53
-1492,-1029,766,-487,510,151
-1467,-1072,847,-693,760,311
-1466,-1065,834,-838,922,429
-1533,-1177,898,-953,1072,599
-1530,-1315,926,-918,989,639
-1426,-1292,907,-625,774,373
-1370,-1215,880,-453,541,185
-1323,-1136,850,-354,357,121
-1311,-1030,795,-241,259,77
-1359,-980,699,-227,341,78
-1348,-1081,664,-309,525,159
-1255,-1143,660,-342,514,300
-1118,-1080,727,-222,310,329
-1033,-1000,916,-6,-34,117
-1050,-925,1077,173,-399,-110
-1151,-824,1369,398,-873,-194
-1201,-733,1289,568,-949,-429
-1279,-885,1097,343,-155,-886
-1381,-1216,762,-4,358,-1469
-1424,-1584,499,-188,183,-1879
-1398,-1823,396,-177,-186,-1888
-1454,-1878,349,15,-410,-1512
-1712,-1774,289,244,-205,-1004
-1950,-1753,504,283,325,-455
-2067,-1587,419,54,474,97
-2132,-1272,323,-317,577,674
-2015,-1264,552,-968,766,1295
-1714,-1317,660,-1466,609,1822
-1459,-1306,762,-1447,225,2006
-1159,-1167,947,-803,-286,1161
-999,-1012,1040,-133,-486,-167
-1011,-925,1134,-23,-417,-635
-1082,-892,950,-81,-342,-608
-1289,-1211,908,-119,-7,-629
-1320,-1283,827,236,-228,-669
-1271,-1496,613,524,-73,-707
-1288,-1643,629,644,101,-717
-1257,-1635,655,690,37,-597
-1208,-1629,701,792,-22,-404
-1225,-1426,734,843,-21,-208
-1325,-1256,776,708,121,-46
-1410,-1100,716,570,197,29
-1444,-781,722,408,147,103
-1414,-790,857,-29,232,241
-1411,-1003,986,-441,355,275
-1375,-1068,981,-602,313,229
-1345,-1016,896,-646,355,190
-1376,-1069,832,-701,386,164
-1454,-1223,732,-669,435,114
-1407,-1342,640,-528,451,32
-1396,-1362,592,-376,316,-98
-1473,-1354,560,-244,223,-219
-1466,-1286,556,-154,193,-284
-1410,-1178,580,-155,138,-205
-1372,-1051,593,-165,102,-83
-1328,-966,584,-212,104,-10
-1289,-941,561,-282,125,20
-1262,-975,537,-357,123,53
-1262,-1054,505,-365,88,63
-1231,-1136,425,-324,58,59
-1183,-1118,389,-260,21,34
-1189,-1074,402,-225,22,-4
-1205,-1069,412,-226,61,-10
-1261,-1088,421,-239,108,46
-1372,-1154,422,-255,168,147
-1505,-1252,423,-275,219,235
-1650,-1327,412,-282,270,292
-1774,-1374,393,-271,330,306
-1890,-1456,412,-265,341,266
-1923,-1493,415,-246,303,180
-1864,-1417,432,-214,222,96
-1750,-1305,459,-195,112,37
-1603,-1203,487,-197,23,-8
-1464,-1147,513,-218,4,-50
-1388,-1156,545,-242,24,-74
-1367,-1225,564,-249,55,-68
-1401,-1335,595,-222,82,-43
-1454,-1469,619,-151,89,-20
-1472,-1568,634,-30,57,43
-1484,-1543,645,126,-2,142
-1476,-1413,652,292,-48,199
-1452,-1256,636,394,27,214
-1467,-1104,595,296,273,294
-1513,-1109,576,23,649,372
-1577,-1182,549,-171,979,307
-1567,-1207,463,-261,1047,166
-1540,-1267,365,-325,873,37
-1497,-1368,318,-324,651,-144
-1474,-1421,347,-288,575,-343
-1472,-1372,413,-258,873,-668
-1455,-1382,304,-193,1366,-1144
-1479,-1503,187,-80,1409,-1620
-1580,-1529,43,77,828,-2042
-1631,-1521,175,258,-78,-2586
-1463,-1516,365,419,-587,-3026
-1252,-1525,467,549,-726,-2874
-1150,-1532,510,692,-660,-2142
-1210,-1327,565,666,-623,-1205
-1213,-1303,615,433,-651,-766
-1168,-1342,574,280,-503,-509
-1189,-1424,508,96,-375,-226
-1189,-1463,463,12,-375,4
-1183,-1455,425,-35,-357,261
-1187,-1453,428,-164,-270,547
-1183,-1462,461,-165,-161,770
-1217,-1464,475,-79,-56,979
-1306,-1480,490,-124,20,1177
-1357,-1542,478,-228,25,1235
-1385,-1611,434,-241,56,1203
-1396,-1618,411,-228,76,1146
-1400,-1570,404,-209,67,1044
-1372,-1513,399,-173,37,880
-1341,-1471,402,-123,7,711
-1335,-1448,384,-66,-13,526
-1323,-1412,376,-5,-47,301
-1316,-1366,371,48,-87,50
-1337,-1380,373,95,-113,-177
-1363,-1406,393,119,-155,-346
-1397,-1422,396,139,-165,-437
-1415,-1408,399,141,-150,-397
-1415,-1422,396,106,-120,-246
-1404,-1460,411,65,-96,-73
-1381,-1476,419,49,-69,47
-1357,-1464,438,58,-61,94
-1330,-1442,449,89,-72,72
-1339,-1400,461,122,-53,38
-1356,-1381,473,130,-16,29
-1353,-1347,483,115,-2,14
-1359,-1273,498,84,65,-5
-1349,-1242,512,36,128,21
-1361,-1208,447,-18,72,66
