ax,ay,az,gx,gy,gz
-1197,-1449,788,-364,1164,-1119
-1177,-1436,754,-495,1362,-1780
-1142,-1512,702,-628,1377,-2291
-1108,-1596,668,-713,1319,-2555
-1006,-1642,627,-716,1333,-2588
-931,-1803,527,-717,1299,-2501
-841,-1962,405,-728,1125,-2451
-757,-2073,311,-625,969,-2443
-575,-2143,252,-452,813,-2374
-368,-2180,115,-304,560,-2160
-245,-2220,86,-126,348,-1913
-239,-2222,165,112,485,-1880
-353,-2152,244,267,716,-2169
-580,-2170,297,345,833,-2579
-940,-2154,357,469,718,-2550
-1039,-1997,569,610,381,-2576
-744,-1906,596,610,179,-2669
-393,-2002,593,600,12,-2661
-17,-1889,545,694,-171,-2451
48,-1796,549,545,-465,-1572
-12,-1822,458,393,-715,-798
-19,-1835,405,437,-678,-375
24,-1835,391,435,-710,-15
27,-1797,424,383,-783,418
-12,-1817,440,213,-923,883
-106,-1790,496,228,-1028,1274
-165,-1725,585,246,-966,1547
-194,-1757,633,191,-775,1581
-277,-1869,630,151,-565,1431
-370,-1936,681,188,-193,1058
-357,-1991,634,218,259,592
-345,-2005,631,232,355,369
-407,-2006,671,221,250,392
-475,-2020,682,202,185,450
-499,-2008,678,197,119,434
-521,-2005,696,215,0,318
-498,-1990,716,223,-136,180
-429,-1953,677,205,-254,91
-353,-1951,610,179,-318,26
-313,-1971,588,194,-325,-88
-307,-1911,616,208,-303,-131
-308,-1846,634,177,-283,-23
-332,-1867,620,106,-276,125
-367,-1920,587,66,-256,220
-403,-1933,584,66,-229,258
-542,-2037,597,70,-205,264
-631,-1985,592,43,-345,-25
-458,-1956,506,62,-374,-156
-474,-1929,656,273,-426,395
-496,-1859,694,257,-532,692
-507,-1868,711,182,-461,630
-523,-1889,712,145,-330,467
-506,-1922,692,88,-193,284
-463,-1980,663,-11,-80,88
-408,-2011,631,-93,-24,-126
-330,-2027,585,-134,15,-288
-313,-2057,572,-120,36,-287
-322,-2035,600,-75,-8,-166
-312,-1977,631,-30,-50,-20
-303,-1940,667,9,-61,83
-284,-1926,685,15,-44,116
-280,-1936,679,-2,-13,91
-283,-1937,667,-9,19,34
-289,-1940,665,8,45,15
-311,-1938,663,40,32,68
-345,-1924,672,89,-18,187
-365,-1981,641,154,-78,342
-312,-2148,510,288,-182,625
-192,-2271,378,560,-436,1236
-132,-2199,393,876,-891,2218
-212,-1874,520,1116,-1297,3447
-454,-1598,716,1141,-1516,4448
-741,-1480,830,1005,-1493,4880
-835,-1461,830,762,-1273,4735
-917,-1354,967,496,-898,4039
-1074,-1256,1119,401,-770,3650
-1097,-1235,1123,422,-655,3317
-1064,-1223,1060,258,-443,2735
-1013,-1113,1020,16,-212,2158
-1031,-1054,1155,-244,179,1484
-1110,-1350,1199,-569,650,686
-1299,-1937,1023,-908,1197,-321
-1350,-1880,907,-843,1435,-1111
-1203,-1667,824,-747,1355,-1607
-1106,-1730,715,-761,1121,-1902
-1006,-1733,687,-723,786,-1932
-983,-1703,734,-676,706,-1867
-947,-1710,691,-706,792,-1869
-911,-1707,714,-726,893,-1921
-946,-1739,781,-743,1184,-2121
-944,-1736,805,-764,1798,-2670
-825,-1737,656,-753,2481,-3589
-622,-1796,450,-637,2787,-4442
-504,-1898,364,-340,2687,-4895
-389,-1993,347,-64,2371,-4875
-442,-2123,199,113,1999,-3963
-590,-1988,446,325,1414,-3053
-411,-2097,453,255,1104,-2802
-331,-1817,421,222,1011,-2148
-202,-1925,369,138,691,-1357
-315,-2005,414,241,413,-595
-386,-1875,438,259,101,-169
-230,-1928,359,237,85,-408
-239,-2060,391,318,82,-863
-260,-2053,457,285,-163,-1075
-129,-1995,425,302,-183,-1227
-104,-2072,522,391,48,-1247
-175,-2048,574,389,63,-893
-118,-1922,553,329,-186,-487
-96,-2010,538,329,-207,-141
-32,-2133,499,435,-358,399
47,-2114,419,637,-845,1305
63,-2130,394,886,-1542,2418
41,-2037,457,1168,-2200,3410
-170,-1785,661,1405,-2483,4141
-445,-1581,915,1418,-2309,4400
-611,-1503,1089,1179,-1909,4258
-657,-1510,1116,889,-1491,4126
-655,-1411,1104,656,-1253,4201
-703,-1374,1054,494,-1142,4376
-817,-1466,983,356,-929,4467
-945,-1509,922,253,-698,4276
-988,-1579,929,227,-560,3876
-929,-1467,966,216,-133,3242
-995,-1219,894,114,359,2305
-1219,-1413,890,-117,418,1207
-1249,-1702,834,-309,295,177
-1100,-1775,741,-375,317,-701
-1094,-1726,767,-342,523,-1434
-1164,-1586,865,-312,845,-1838
-1188,-1651,856,-431,1095,-2099
-1105,-1681,769,-585,1202,-2392
-1046,-1713,717,-612,1197,-2607
-955,-1748,735,-560,1158,-2692
-862,-1827,696,-551,1167,-2772
-691,-1894,613,-517,1207,-2901
-541,-1853,644,-443,1451,-3108
-478,-1884,579,-426,1703,-3305
-463,-1893,535,-436,1672,-3247
-474,-1852,595,-444,1507,-3005
-467,-1838,597,-456,1349,-2743
-449,-1872,575,-437,1137,-2403
-399,-1917,550,-404,839,-2016
-321,-1903,504,-348,617,-1616
-336,-1950,518,-332,335,-1243
-200,-1996,413,-327,182,-879
-308,-1857,490,-293,-162,177
-352,-1933,446,-358,-660,734
-415,-2026,423,-155,-655,771
-609,-2050,468,82,-533,587
-649,-1880,547,86,-75,91
-551,-1829,579,10,422,-308
-493,-1958,513,-76,409,-275
-532,-2063,468,-57,198,-80
-522,-2099,416,26,33,78
-416,-2187,297,127,-158,269
-190,-2256,164,339,-496,768
2,-2199,120,694,-1045,1722
10,-2017,253,1093,-1670,2988
-279,-1899,497,1281,-2047,4012
-608,-1706,756,1237,-1973,4330
-860,-1632,933,985,-1610,4106
-974,-1709,963,670,-1228,3630
-974,-1671,929,484,-926,3216
-933,-1584,931,410,-768,2804
-866,-1513,919,294,-610,2454
-837,-1518,885,140,-455,2136
-866,-1547,848,10,-305,1731
-938,-1540,912,-138,-142,1196
-1143,-1550,1144,-394,165,386
-1266,-1504,1148,-794,908,-1090
-1131,-1430,897,-972,1765,-3076
-932,-1558,628,-919,2034,-4609
-850,-1792,496,-751,1876,-5173
-785,-2105,403,-617,1659,-4607
-908,-1893,407,-437,1154,-2904
-634,-1757,469,-278,538,-2304
-449,-1884,397,-306,580,-2029
-374,-1944,346,-297,595,-1452
-432,-1973,408,-223,391,-847
-548,-2099,372,-139,249,-563
-242,-1953,360,-87,239,-694
-139,-1981,325,-187,186,-449
-292,-2097,330,-84,106,-98
-417,-2028,449,178,254,-74
-458,-1937,532,249,298,-115
-435,-1924,542,231,206,-50
-428,-2015,476,226,0,188
-388,-2108,358,302,-390,571
-305,-2083,330,546,-897,1107
-350,-2018,426,910,-1408,1913
-419,-1906,563,1263,-1914,2805
-578,-1704,732,1475,-2220,3613
-808,-1498,978,1385,-2213,3916
-952,-1477,1085,986,-2080,3670
-965,-1439,1038,608,-1908,3332
-999,-1435,1038,476,-1584,2862
-1015,-1415,1026,433,-1239,2419
-1026,-1438,983,369,-939,2023
-1048,-1456,952,294,-711,1644
-1059,-1438,961,176,-420,1137
-1122,-1428,1050,7,40,389
-1166,-1388,1128,-235,617,-534
-1169,-1444,1153,-509,1168,-1556
-1185,-1510,1259,-756,1762,-2523
-1221,-1574,914,-950,2412,-3471
-952,-1671,578,-1026,2459,-4247
-707,-1859,515,-1030,2007,-4404
-550,-2130,416,-961,1670,-4069
-436,-2128,333,-716,1537,-3076
-344,-1908,431,-427,986,-1967
-296,-1874,532,-317,600,-1532
-250,-2000,468,-306,859,-1567
-265,-1985,426,-115,1089,-1629
-258,-1925,502,60,954,-1576
-271,-1894,583,50,834,-1430
-302,-1945,516,-8,867,-1234
-389,-1885,552,71,769,-944
-402,-1858,592,22,510,-716
-412,-1883,589,-46,364,-498
-437,-1884,586,-29,232,-215
-479,-1855,590,9,78,79
-511,-1863,589,-11,-147,326
-499,-1908,545,-32,-301,487
-451,-1934,492,52,-394,616
-478,-1968,514,204,-517,753
-479,-1937,506,238,-698,787
-529,-1961,476,264,-747,840
-686,-2001,618,283,-688,920
-819,-1954,749,206,-284,743
-801,-1910,650,65,45,369
-685,-1926,609,-14,28,48
-550,-1968,589,-53,-24,-90
-485,-1984,559,-78,-27,-86
-445,-1996,537,-60,6,-84
-406,-1974,533,-21,29,-136
-355,-1927,546,4,60,-167
-349,-1919,565,8,72,-141
-375,-1919,598,18,124,-154
-389,-1902,602,18,200,-220
-390,-1859,636,8,166,-236
-412,-1865,654,-16,87,-165
-426,-1855,632,-31,74,-94
-404,-1838,621,-36,45,-28
-398,-1859,623,-11,15,48
-454,-1865,625,15,94,40
-532,-1858,632,7,219,-92
-596,-1843,650,-37,280,-270
-624,-1868,635,-85,270,-352
-607,-1909,600,-82,203,-306
-593,-1938,568,-47,117,-219
-576,-1953,544,-9,36,-138
-529,-1955,520,14,-78,-42
-486,-1983,492,41,-220,93
-426,-2059,422,90,-365,302
-295,-2152,299,192,-653,794
-147,-2193,199,380,-1123,1669
-201,-2095,243,906,-1523,2947
-479,-1753,592,1217,-1862,4203
-791,-1578,850,900,-2003,4887
-1007,-1577,956,490,-1698,5085
-1119,-1540,1007,338,-1292,4858
-1132,-1457,1057,277,-1019,4186
-1081,-1407,1061,163,-792,3416
-1074,-1444,1013,-10,-566,2806
-1065,-1496,948,-149,-387,2330
-1035,-1509,859,-267,-242,1844
-1031,-1579,801,-383,-135,1252
-1023,-1578,798,-415,-59,634
-1009,-1497,830,-389,14,162
-1044,-1411,878,-419,69,-195
-1111,-1308,923,-540,198,-682
-1192,-1355,948,-682,442,-1407
-1231,-1358,1005,-782,844,-2319
-1219,-1467,941,-776,1363,-3387
-1116,-1612,764,-720,1608,-4314
-881,-1735,472,-702,1604,-4928
-633,-1832,378,-642,1460,-4966
-547,-1934,340,-443,1187,-4554
-505,-1983,351,-233,974,-3796
-561,-1949,447,-122,842,-2923
-586,-1953,438,-57,929,-2527
-314,-2104,381,57,1084,-2549
-205,-1844,417,-1,1004,-2026
-233,-2056,356,-383,525,-1270
-256,-2291,186,-130,699,-990
-266,-2111,335,368,920,-951
-345,-1962,487,450,752,-1005
-326,-1934,575,359,610,-1047
-338,-1987,572,253,525,-914
-348,-1969,556,229,283,-609
-305,-1943,575,240,17,-308
-235,-1941,563,245,-233,49
-218,-1898,573,295,-554,554
-252,-1854,612,327,-936,1063
-279,-1863,610,340,-1211,1386
-223,-1929,553,391,-1343,1582
-203,-1961,521,538,-1391,1901
-304,-1930,565,779,-1419,2329
-433,-1847,649,973,-1503,2744
-596,-1733,782,1083,-1546,3121
-790,-1636,961,1091,-1481,3500
-932,-1541,1060,935,-1226,3890
-1024,-1441,1065,625,-1026,3972
-1093,-1452,1022,317,-889,3780
-1132,-1541,958,132,-709,3307
-1140,-1584,906,53,-518,2627
-1148,-1580,894,12,-381,2053
-1137,-1583,875,-56,-275,1680
-1110,-1598,822,-156,-213,1445
-1119,-1632,804,-219,-204,1307
-1141,-1630,843,-254,-221,1184
-1169,-1600,891,-276,-241,1115
-1154,-1575,920,-335,-229,1064
-1120,-1560,932,-443,-165,795
-1093,-1521,1045,-562,18,258
-994,-1541,933,-669,518,-484
-910,-1659,688,-750,850,-1141
-853,-1709,561,-723,758,-1505
-814,-1717,555,-608,543,-1615
-777,-1685,557,-482,406,-1599
-725,-1607,615,-389,389,-1540
-664,-1579,632,-338,467,-1506
-629,-1562,620,-295,426,-1453
-623,-1557,615,-204,353,-1382
-691,-1574,655,-86,389,-1396
-762,-1625,685,16,593,-1569
-807,-1666,621,83,735,-1796
-802,-1679,610,125,702,-1925
-782,-1651,646,122,674,-1909
-773,-1635,643,90,650,-1782
-916,-1653,745,42,492,-1720
-621,-1604,752,-91,413,-1960
-474,-1662,621,-373,318,-1108
-508,-1651,589,-407,-138,-86
-524,-1567,664,-350,-465,434
-490,-1507,706,-383,-632,686
-448,-1530,642,-394,-747,885
-518,-1814,490,-335,-851,1156
-632,-2040,404,-223,-929,1472
-681,-1988,431,-116,-983,1761
-662,-1927,499,-31,-949,1918
-621,-1890,533,159,-827,1825
-590,-1805,579,304,-617,1678
-644,-1819,645,280,-461,1630
-708,-1811,664,262,-340,1507
-814,-1801,664,265,-177,1334
-907,-1797,678,173,2,1183
-912,-1956,578,-75,35,1172
-935,-2008,490,-26,2,1116
-1015,-1904,559,178,-42,1013
-1097,-1755,686,176,-79,956
-1134,-1633,746,49,-141,929
-1108,-1465,783,-36,-164,916
-959,-1131,729,-85,-52,1041
-1365,-1832,860,72,293,1380
-1237,-1596,1052,-241,72,1040
-937,-1531,266,-596,341,1063
-981,-1886,90,22,576,1813
-1173,-1847,236,591,304,2392
-1332,-1573,423,762,158,2397
-1694,-1428,780,676,169,2044
-1702,-1296,874,296,248,1412
-1558,-1312,712,51,486,808
-1484,-1330,840,24,530,312
-1450,-1223,922,-102,510,-29
-1489,-1184,917,-300,607,-211
-1452,-1213,902,-462,761,-326
-1319,-1239,816,-617,813,-459
-1164,-1323,693,-723,808,-571
-1067,-1509,524,-768,796,-621
-1052,-1722,358,-704,701,-571
-1104,-1923,205,-475,492,-386
-1182,-1888,234,-176,113,-1
-1200,-1556,467,23,-168,456
-1203,-1269,665,60,-224,743
-1242,-1173,786,6,-219,811
-1304,-1217,838,-46,-250,787
-1390,-1249,817,-76,-263,781
-1524,-1252,791,-183,-319,800
-1345,-1153,702,-560,-407,640
-1360,-1360,595,-464,-60,902
-1588,-1127,644,-274,226,1137
-1530,-1197,479,-368,282,816
-1427,-1355,442,-412,337,462
-1420,-1370,481,-348,534,249
-1506,-1238,535,-301,712,38
-1541,-1192,586,-388,688,-147
-1538,-1164,599,-476,642,-229
-1491,-1176,571,-533,592,-271
-1422,-1161,532,-589,546,-324
-1428,-1244,473,-608,509,-334
-1490,-1525,286,-552,444,-276
-1473,-1746,41,-411,325,-115
-1378,-1686,27,-210,169,86
-1345,-1611,167,-24,161,138
-1395,-1523,281,54,193,29
-1470,-1480,414,76,130,-165
-1523,-1432,552,94,82,-357
-1554,-1380,633,37,115,-477
-1526,-1324,672,-105,209,-608
-1477,-1349,649,-264,317,-819
-1407,-1411,561,-428,361,-1134
-1340,-1424,509,-618,483,-1424
-1417,-1499,396,-758,694,-1615
-1365,-1474,307,-730,856,-1823
-1374,-1550,238,-681,914,-1794
-1397,-1675,143,-663,769,-1441
-1355,-1655,141,-626,506,-903
-1278,-1509,218,-637,298,-453
-1217,-1446,266,-725,223,-199
-1175,-1496,175,-795,221,-22
-1117,-1548,60,-844,194,190
-1092,-1653,14,-867,147,331
-1046,-1678,58,-524,-224,435
-815,-1616,74,-221,-374,245
-954,-1591,80,-188,-43,-340
-1381,-1774,40,-487,478,-1262
-1573,-1834,32,-485,429,-1588
-1410,-1674,67,-216,-204,-1230
-1272,-1498,103,-237,-791,-762
-1258,-1514,154,-365,-884,-496
-1200,-1484,218,-506,-804,-346
-1110,-1465,277,-637,-564,-325
-1060,-1545,277,-789,-134,-398
-1011,-1755,-23,-978,130,-275
-1057,-2062,-384,-887,137,173
-1083,-2337,-561,-742,7,706
-960,-2138,-371,-686,165,925
-950,-1964,-261,-848,711,786
-960,-1839,-398,-903,1025,509
-1317,-1568,-543,-637,743,104
-1214,-2027,-251,-260,-75,-499
-791,-2764,-144,-16,-237,-555
-1193,-2037,-389,255,119,-43
-1118,-1585,-121,439,9,-138
-1050,-1515,28,444,241,-435
-1130,-1435,50,433,638,-858
-1069,-1346,149,322,599,-1321
-1094,-1566,182,179,724,-1735
-1126,-1588,152,159,928,-1681
-1187,-1542,99,76,943,-1458
-1119,-1625,-28,-58,836,-1345
-1045,-1678,-120,-83,713,-1219
-1022,-1692,-178,-39,552,-1029
-960,-1689,-145,-7,358,-840
-883,-1728,-30,5,300,-742
-879,-1817,133,20,572,-845
-1007,-1873,293,-20,1346,-1343
-1220,-1856,139,-95,2354,-2270
-1347,-1848,63,-150,2854,-3232
-1318,-1939,10,-242,2849,-3822
-1154,-2033,-59,-330,2466,-3909
-875,-2073,-120,-328,1919,-3649
-568,-2089,-180,-237,1337,-3191
-305,-2080,-206,-104,752,-2603
-53,-2009,-196,-35,247,-1928
76,-1989,-195,-76,-181,-1281
147,-2040,-269,-188,-599,-876
180,-2061,-347,-11,-842,-665
47,-2081,-291,373,-906,-499
-172,-2076,-247,708,-775,-358
-290,-2006,-210,918,-641,-233
-310,-2001,-236,949,-599,-207
-309,-2061,-211,1060,-630,-172
-178,-1941,-121,1200,-788,14
-59,-1765,-60,1153,-944,339
-40,-1677,13,968,-1068,733
-111,-1687,14,680,-1138,1130
-202,-1762,-58,407,-1187,1444
-302,-1781,-94,256,-1240,1631
-485,-1770,-5,162,-1288,1753
-665,-1752,133,-4,-1289,1833
-792,-1756,189,-277,-1194,1830
-845,-1853,127,-579,-1007,1746
-840,-2010,-45,-817,-822,1657
-749,-2113,-185,-969,-800,1713
-646,-2178,-254,-1009,-932,1831
-561,-2207,-283,-882,-1051,1763
-488,-2166,-247,-759,-1105,1529
-470,-2130,-178,-760,-1046,1320
-503,-2130,-160,-797,-780,1080
-522,-2092,-236,-834,-554,820
-577,-2122,-250,-991,-515,740
-737,-2287,-240,-1010,-520,797
-760,-2239,-232,-705,-585,588
-753,-2132,-288,-510,-561,454
-785,-2103,-320,-484,-426,526
-781,-2067,-323,-509,-419,657
-741,-2028,-300,-453,-471,707
-720,-1989,-270,-303,-488,687
-713,-1878,-242,-116,-466,656
-722,-1746,-209,2,-404,596
-786,-1725,-233,57,-294,520
-846,-1760,-277,121,-229,509
-854,-1776,-303,220,-295,577
-839,-1721,-253,307,-418,637
-843,-1644,-156,307,-456,625
-886,-1660,-133,224,-374,582
-949,-1742,-195,71,-292,582
-939,-1762,-221,-192,-414,706
-916,-1768,-190,-424,-546,865
-1003,-1733,-140,-496,-494,935
-998,-1867,-129,-531,-427,869
-1005,-1842,-120,-456,-393,788
-1044,-1752,-81,-358,-286,654
-1052,-1816,-72,-336,-228,531
-1059,-1889,-155,-268,-308,490
-1034,-1890,-159,-145,-548,530
-993,-2010,-138,-6,-766,645
-1036,-1860,-106,241,-767,874
-1011,-1755,-30,120,-663,1033
-1031,-1941,-164,11,-570,1162
-1031,-1701,-171,126,-431,1228
-1024,-1626,-98,236,-371,1239
-1007,-1665,-59,347,-345,1183
-1043,-1547,-2,448,-144,1196
-1134,-1415,75,540,-2,1249
-1197,-1277,213,614,17,1243
-1254,-1132,403,572,203,1167
-1392,-1099,400,372,585,1026
-1527,-1104,314,164,702,871
-1564,-1071,288,8,609,681
-1653,-1132,271,-127,629,445
-1718,-1215,233,-265,739,195
-1753,-1295,210,-384,840,-46
-1758,-1373,148,-473,912,-260
-1742,-1460,64,-535,929,-422
-1726,-1547,19,-583,879,-525
-1695,-1601,-25,-655,807,-576
-1666,-1652,-86,-716,666,-562
-1607,-1689,-114,-713,449,-503
-1530,-1688,-109,-667,217,-447
-1461,-1688,-100,-608,44,-401
-1415,-1662,-98,-592,-33,-364
-1438,-1623,-54,-654,-6,-350
-1513,-1631,-29,-726,127,-431
-1595,-1639,-25,-773,293,-596
-1641,-1606,-56,-821,419,-777
-1616,-1571,-114,-869,434,-906
-1520,-1531,-131,-904,319,-970
-1364,-1471,-127,-932,183,-991
-1217,-1413,-141,-966,83,-973
-1121,-1386,-173,-994,2,-921
-1058,-1350,-216,-996,-91,-858
-1060,-1356,-330,-986,-156,-782
-1077,-1419,-479,-962,-153,-705
-1055,-1464,-529,-919,-142,-655
-1040,-1498,-543,-890,-155,-642
-1042,-1539,-566,-875,-136,-648
-1013,-1572,-587,-875,-87,-653
-994,-1612,-586,-860,-65,-646
-1020,-1645,-567,-848,-24,-662
-1051,-1677,-584,-859,86,-727
-1038,-1717,-626,-878,170,-813
-1008,-1750,-685,-891,205,-885
-969,-1782,-737,-899,219,-919
-913,-1819,-791,-913,224,-925
-837,-1860,-836,-922,227,-882
-741,-1886,-842,-904,200,-781
-667,-1914,-835,-866,140,-638
-634,-1941,-847,-812,55,-490
-632,-1954,-895,-737,-41,-360
-648,-1953,-949,-633,-137,-245
-660,-1929,-985,-497,-229,-142
-683,-1886,-996,-347,-306,-48
-691,-1830,-977,-221,-359,28
-662,-1758,-926,-115,-389,70
-627,-1683,-827,-48,-375,83
-617,-1611,-751,-28,-302,72
-633,-1543,-738,-60,-194,68
-665,-1494,-740,-171,-106,111
-756,-1539,-834,-331,-37,220
-864,-1608,-925,-374,-49,359
-914,-1612,-897,-305,-164,424
-885,-1550,-843,-258,-210,377
-846,-1511,-820,-285,-47,265
-823,-1589,-773,-298,121,208
-779,-1622,-744,-281,116,209
-724,-1633,-753,-243,118,233
-754,-1686,-767,-162,162,268
-815,-1733,-784,-61,180,280
-874,-1772,-813,37,182,256
-904,-1822,-875,124,191,207
-917,-1879,-902,223,214,174
-892,-1915,-843,357,232,159
-852,-1911,-738,475,367,122
-867,-1948,-814,498,564,100
-922,-1974,-875,528,491,142
-964,-1941,-809,634,396,193
-1037,-1802,-569,782,493,221
-1245,-1745,-455,765,729,123
-1258,-1694,-696,640,1011,-244
-1118,-1588,-726,711,839,-398
-1109,-1594,-644,839,454,-296
-1172,-1519,-583,862,238,-134
-1212,-1474,-507,782,256,-106
-1191,-1522,-527,676,341,-170
-1124,-1693,-593,659,351,-380
-1001,-1735,-582,808,462,-675
-955,-1728,-563,982,765,-982
-1015,-1771,-572,1061,907,-1236
-1034,-1753,-517,1035,882,-1399
-1043,-1745,-502,904,925,-1568
-987,-1782,-564,812,1035,-1707
-965,-1834,-599,795,979,-1624
-935,-1853,-527,741,717,-1349
-834,-1843,-488,611,587,-1111
-622,-1886,-542,510,547,-893
-441,-1986,-531,520,477,-652
-346,-2033,-546,648,537,-509
-342,-2055,-544,813,464,-417
-383,-2136,-565,945,308,-385
-451,-2100,-499,1058,274,-328
-577,-2142,-454,1102,257,-244
-612,-2042,-464,1228,116,-62
-609,-2014,-403,1309,58,171
-642,-2006,-435,1228,92,347
-727,-1907,-359,1054,23,587
-832,-1783,-242,855,-17,728
-881,-1761,-308,652,-89,763
-866,-1712,-277,537,-184,753
-879,-1644,-237,418,-193,768
-803,-1681,-252,310,-277,786
-791,-1734,-343,285,-322,785
-774,-1783,-364,412,-476,800
-852,-1903,-408,535,-598,781
-905,-2028,-451,663,-790,912
-910,-2072,-479,768,-1098,1180
-865,-1971,-459,855,-1326,1509
-889,-1850,-337,617,-1117,1878
-958,-1840,-169,117,-711,2244
-1034,-1985,-116,-362,-403,2236
-1061,-1972,-140,-506,-320,2054
-811,-1536,-133,-418,-526,1871
-708,-1328,-85,-689,-537,1414
-824,-1754,-3,-823,-323,781
-810,-2065,-62,-829,-172,-104
-751,-1929,2,-509,-154,-469
-652,-1734,24,-358,-112,-441
-611,-1717,-28,-541,36,-239
-474,-1637,-49,-735,322,-101
-301,-1575,-88,-867,845,-116
-67,-1486,-150,-977,1343,-80
-5,-1382,-17,-1111,1979,-48
-424,-1273,131,-1351,2764,-168
-1158,-1221,-77,-1652,3263,-540
-1713,-1515,-520,-1770,3232,-1089
-1814,-1911,-951,-1647,2602,-1494
-1589,-1800,-1163,-1225,1598,-1202
-1368,-2075,-1110,-733,616,-631
-1027,-2129,-1184,-566,16,-585
-888,-1951,-1139,-336,-250,-240
-865,-1828,-981,-141,-515,161
-795,-1785,-905,-100,-725,356
-695,-1722,-785,-10,-810,599
-621,-1678,-705,-32,-766,900
-628,-1732,-723,-132,-633,1135
-734,-1824,-745,-151,-503,1255
-864,-1841,-730,-63,-460,1324
-1006,-1818,-696,64,-512,1374
-1101,-1802,-688,84,-524,1355
-1070,-1805,-708,41,-440,1252
-965,-1780,-653,-11,-354,1208
-924,-1692,-563,-207,-338,1312
-1021,-1674,-511,-593,-359,1499
-1223,-1716,-508,-917,-430,1619
-1416,-1762,-549,-1008,-533,1587
-1577,-1728,-579,-979,-653,1427
-1682,-1628,-561,-964,-777,1190
-1757,-1499,-510,-961,-804,832
-1829,-1348,-454,-1097,-631,389
-1893,-1267,-418,-1344,-312,12
-1880,-1175,-486,-1679,60,-271
-1848,-1248,-610,-2092,294,-397
-1840,-1384,-739,-2223,349,-471
-1857,-1442,-870,-2058,287,-667
-1855,-1531,-1064,-1849,206,-962
-1913,-1555,-1182,-1673,-8,-1082
-1864,-1415,-1142,-1551,-351,-1114
-1804,-1411,-1092,-1431,-447,-1323
-1514,-1526,-1062,-1238,-538,-1606
-1237,-1468,-930,-976,-589,-1766
-997,-1399,-798,-731,-518,-1867
-829,-1353,-806,-525,-296,-1812
-812,-1373,-829,-353,-48,-1526
-782,-1497,-891,-264,109,-1424
-667,-1540,-937,-185,244,-1515
-517,-1514,-907,-49,347,-1511
-302,-1507,-865,58,452,-1447
-117,-1557,-863,78,604,-1337
-119,-1689,-996,4,673,-1107
-228,-1858,-1245,14,543,-841
-321,-1846,-1390,107,235,-575
-404,-1807,-1281,215,-65,-333
-470,-1760,-1206,348,-272,-120
-519,-1739,-1248,466,-443,89
-571,-1690,-1218,626,-564,230
-586,-1633,-1067,840,-620,298
-507,-1520,-942,1022,-615,307
-443,-1452,-899,1103,-516,342
-510,-1514,-851,1188,-394,442
-588,-1597,-864,1227,-262,358
-531,-1606,-837,1369,-85,109
-503,-1599,-827,1594,361,-188
-546,-1638,-846,1845,644,-320
-713,-1601,-803,1986,626,-390
-836,-1682,-749,1841,497,-563
-928,-1711,-797,1745,483,-811
-996,-1747,-802,1785,544,-768
-875,-1684,-744,1891,397,-628
-847,-1705,-703,1962,361,-210
-906,-1807,-687,1712,498,242
-888,-1741,-627,1368,488,629
-916,-1772,-504,1042,450,1010
-978,-1840,-403,731,366,1280
-993,-1813,-320,484,287,1393
-1017,-1742,-245,297,279,1433
-1075,-1632,-232,7,306,1604
-1212,-1656,-245,-487,376,1866
-1364,-1633,-314,-990,564,1850
-1572,-1687,-384,-1462,825,1613
-1616,-1802,-455,-1624,665,1263
-1596,-1736,-504,-1482,411,887
-1552,-1574,-438,-1410,295,550
-1510,-1531,-391,-1428,212,247
-1431,-1475,-391,-1349,5,-4
-1386,-1340,-387,-1298,-159,-201
-1443,-1397,-445,-1376,-144,-272
-1452,-1459,-501,-1204,-168,-382
-1379,-1415,-566,-942,-188,-501
-1324,-1411,-609,-743,-107,-513
-1276,-1442,-611,-584,-70,-526
-1209,-1478,-621,-472,-78,-589
-1176,-1531,-698,-386,-40,-671
-1172,-1615,-811,-305,-4,-739
-1156,-1695,-869,-149,-17,-772
-1198,-1795,-945,37,-86,-798
-1201,-1866,-1016,229,-274,-844
-1116,-1866,-986,408,-551,-907
-946,-1877,-916,534,-769,-973
-628,-1821,-810,586,-941,-966
-323,-1804,-754,582,-894,-869
-311,-1989,-868,548,-691,-641
-426,-2163,-1056,579,-640,-344
-575,-2252,-1237,810,-735,-7
-779,-2373,-1360,1175,-956,361
-800,-2225,-1270,1564,-1367,666
-842,-2097,-1096,1836,-1707,849
-748,-1826,-901,2003,-1947,932
-631,-1500,-620,1996,-1964,924
-671,-1393,-369,1828,-1639,902
-722,-1427,-280,1603,-1287,712
-699,-1364,-229,1423,-966,377
-727,-1360,-218,1185,-480,49
-896,-1549,-344,988,-121,-138
-1008,-1656,-483,946,-102,-183
-1082,-1725,-542,1012,-164,-138
-1018,-1670,-481,1129,-322,-20
-928,-1601,-351,1166,-391,125
-909,-1644,-282,1084,-317,246
-935,-1706,-262,1057,-275,367
-946,-1689,-216,1131,-308,502
-926,-1638,-110,1135,-327,602
-901,-1602,-9,1037,-274,561
-907,-1488,99,965,-156,482
-947,-1399,277,850,261,430
-966,-1383,365,512,1097,59
-1019,-1569,311,168,1913,-418
-1106,-1687,222,22,2169,-781
-1338,-1915,197,-35,2128,-1239
-1533,-1911,109,48,2015,-1564
-1697,-1737,198,113,1691,-1355
-1750,-1700,245,112,1281,-1096
-1635,-1712,214,70,891,-1001
-1468,-1673,144,31,526,-826
-1352,-1615,136,-37,257,-599
-1269,-1626,102,-106,53,-526
-1193,-1703,48,-98,59,-708
-1144,-1676,33,-14,352,-1014
-1180,-1634,8,36,515,-1247
-1356,-1632,-9,27,379,-1323
-1438,-1674,-42,-19,138,-1342
-1349,-1707,-56,-99,-167,-1316
-1402,-1750,-60,-175,-502,-1253
-1457,-1781,-93,-199,-788,-1286
-1266,-1832,-113,-203,-956,-1335
-989,-1844,-34,-199,-993,-1258
-831,-1813,1,-186,-735,-1194
-765,-1839,-56,-191,-367,-1268
-867,-1904,-155,-167,-168,-1442
-933,-1992,-219,-43,-72,-1804
-824,-2035,-262,91,78,-2215
-481,-1996,-248,140,112,-2445
-36,-1903,-221,81,37,-2374
288,-1971,-253,-35,20,-2091
355,-2221,-401,-175,96,-1696
254,-2466,-650,-210,35,-1154
179,-2618,-826,-86,-141,-598
82,-2679,-890,171,-442,-115
26,-2537,-792,521,-855,230
-97,-2254,-637,906,-1259,380
-221,-2016,-404,1224,-1627,362
-145,-1836,-168,1328,-1949,374
-68,-1608,-78,1304,-2014,463
-75,-1545,88,1099,-1558,621
-130,-1587,129,516,-1087,641
-130,-1613,85,22,-865,738
-8,-1679,23,-320,-630,911
94,-1792,-17,-639,-264,1187
168,-1876,-84,-1009,-11,1482
118,-1922,-176,-1225,184,1695
-39,-2000,-252,-1353,268,1806
-256,-2098,-296,-1311,225,1866
-441,-2121,-315,-1048,123,1867
-504,-2063,-316,-752,-63,1799
-512,-1962,-264,-573,-231,1746
-536,-1771,-146,-667,-310,1784
-549,-1777,-97,-1088,-447,1913
-582,-1841,-138,-1419,-613,1986
-652,-1899,-163,-1455,-670,2008
-677,-1919,-135,-1288,-671,1976
-766,-1844,-88,-953,-382,1960
-992,-1851,-76,-610,-362,1863
-1154,-1825,-185,-261,-576,1780
-1263,-1769,-288,61,-554,1657
-1310,-1735,-295,311,-453,1472
-1260,-1653,-170,510,-466,1265
-1191,-1485,62,596,-476,1038
-1219,-1314,286,383,-326,855
-1350,-1319,389,-99,-93,747
-1492,-1376,346,-526,187,559
-1655,-1482,191,-740,455,274
-1724,-1536,-21,-818,565,-10
-1636,-1527,-114,-850,511,-254
-1475,-1503,-62,-911,422,-416
-1320,-1503,-63,-980,404,-450
-1266,-1549,-125,-1007,423,-380
-1280,-1613,-192,-962,449,-306
-1331,-1658,-266,-829,472,-264
-1323,-1703,-307,-723,449,-258
-1286,-1768,-378,-646,405,-282
-1233,-1813,-469,-532,284,-300
-1170,-1810,-489,-412,129,-303
-1114,-1798,-467,-329,60,-299
-1083,-1808,-493,-311,79,-280
-1056,-1842,-513,-334,117,-228
-1042,-1865,-508,-326,122,-168
-1059,-1874,-517,-288,89,-114
-1075,-1874,-552,-248,55,-91
-1120,-1870,-566,-179,29,-95
-1163,-1869,-596,-105,-62,-108
-1162,-1804,-550,-14,-215,-127
-1167,-1699,-454,33,-250,-183
-1181,-1621,-382,-55,-215,-219
-1160,-1631,-348,-220,-243,-224
-1147,-1676,-395,-328,-264,-247
-1123,-1643,-425,-345,-243,-299
-1127,-1601,-415,-340,-163,-372
-1036,-1691,-461,-338,-88,-384
-1016,-1645,-408,-271,134,-336
-1056,-1610,-372,-268,587,-317
-1101,-1617,-467,-293,876,-294
-1167,-1648,-511,-252,807,-263
-1188,-1668,-506,-141,623,-284
-1179,-1716,-510,-29,601,-404
-1126,-1733,-496,29,671,-568
-1037,-1748,-494,37,703,-679
-994,-1799,-522,34,693,-733
-956,-1842,-595,52,631,-775
-855,-1852,-628,62,543,-813
-768,-1878,-624,54,477,-795
-708,-1899,-618,48,400,-720
-652,-1930,-631,43,348,-639
-584,-1952,-626,48,338,-569
-492,-1964,-551,72,439,-512
-421,-1997,-481,116,853,-519
-405,-2007,-491,224,1508,-579
-480,-1916,-497,440,2070,-629
-719,-1829,-536,628,2320,-727
-890,-1799,-650,703,2109,-980
-849,-1704,-720,758,1633,-1158
-727,-1497,-588,767,1167,-1078
-766,-1842,-602,530,902,-874
-725,-1854,-735,403,663,-686
-566,-1736,-703,478,313,-494
-486,-1799,-701,533,1,-372
-454,-1925,-825,709,-227,-305
-494,-2023,-781,979,-239,-271
-538,-1939,-582,1242,122,-369
-546,-1879,-500,1345,607,-510
-622,-1906,-361,1285,826,-632
-749,-1947,-338,1091,1041,-876
-726,-1971,-468,922,1187,-1166
-637,-1983,-534,857,1023,-1318
-549,-2008,-499,805,819,-1303
-447,-2003,-419,706,692,-1153
-298,-2010,-395,577,617,-964
-159,-2129,-476,479,534,-727
-127,-2236,-475,499,548,-568
-106,-2262,-436,571,725,-617
-96,-2239,-254,659,859,-786
-206,-2259,-270,665,1157,-1004
-288,-2170,-351,665,1194,-1113
-339,-2075,-299,641,826,-970
-294,-1962,-199,566,509,-777
-264,-1897,-222,413,411,-735
-288,-1920,-313,300,377,-714
-247,-1912,-357,301,251,-550
-154,-1966,-421,346,68,-295
-120,-2050,-484,469,-182,-23
-140,-2009,-475,623,-471,209
-209,-1961,-414,761,-725,483
-292,-1955,-334,897,-963,793
-383,-1851,-242,1008,-1165,1185
-395,-1797,-120,941,-1200,1560
-322,-1780,-66,725,-1054,1762
-298,-1857,-129,468,-841,1956
-342,-1934,-169,266,-724,2201
-363,-1982,-197,165,-654,2316
-367,-2069,-249,122,-545,2263
-419,-2178,-246,153,-455,2085
-424,-2204,-191,246,-491,1876
-460,-2134,-139,338,-419,1642
-504,-2147,-98,388,-273,1381
-524,-2311,-187,372,-322,1209
-537,-2389,-230,494,-678,1428
-608,-2302,-166,760,-960,1902
-681,-2152,-70,902,-1023,2189
-829,-2241,7,982,-1071,2118
-838,-1970,32,1124,-1215,1762
-844,-1611,333,1214,-1018,1468
-823,-1322,743,926,-96,916
-793,-1198,996,354,1467,96
-921,-1150,778,-230,3146,-892
-1338,-1313,358,-708,3674,-1615
-1555,-1596,22,-915,3039,-1897
-1410,-2012,-231,-827,2036,-2013
-993,-2266,-458,-487,793,-1874
-846,-1977,-360,20,-286,-1307
-959,-1728,-184,284,-579,-999
-904,-1797,-158,256,-582,-978
-764,-1969,-192,267,-634,-974
-637,-2007,-152,396,-665,-1003
-637,-1999,-70,396,-553,-1013
-694,-2021,19,317,-327,-1099
-655,-1987,72,260,67,-1362
-596,-1967,106,167,557,-1759
-490,-2021,25,43,880,-2084
-318,-2010,27,-16,910,-2090
-205,-2011,21,-116,803,-1847
-147,-2002,2,-231,651,-1513
-134,-2017,-44,-344,478,-1116
-117,-2075,-125,-487,255,-711
-30,-2131,-220,-566,-77,-359
90,-2190,-317,-440,-436,4
187,-2250,-412,-164,-749,415
134,-2221,-395,144,-968,834
12,-2154,-299,363,-1094,1207
-150,-2122,-248,519,-1110,1456
-368,-2208,-235,691,-1169,1564
-349,-2299,-185,858,-1291,1539
-425,-2084,-112,952,-836,1375
-720,-1860,-131,961,-287,1087
-818,-1814,-72,901,-279,882
-739,-1761,91,790,-358,897
-713,-1693,191,616,-316,935
-775,-1691,211,457,-214,782
-827,-1767,223,333,-131,552
-779,-1828,180,235,-143,397
-712,-1937,162,194,-202,362
-671,-2122,122,216,-269,460
-563,-2307,-30,384,-368,714
-511,-2453,-156,630,-566,1135
-585,-2464,-140,909,-1088,1695
-514,-2194,23,1195,-1685,2113
-674,-1933,329,1269,-1605,2209
-777,-1767,501,1184,-1387,2136
-823,-1652,591,1053,-1142,1982
-895,-1545,686,817,-871,1761
-959,-1483,717,540,-657,1523
-984,-1412,775,255,-337,1286
-1009,-1598,614,5,90,1084
-944,-1724,410,-116,134,1034
-929,-1697,378,-136,-46,1120
-936,-1629,436,-115,-134,1157
-953,-1506,561,-101,-67,1088
-995,-1414,660,-155,266,850
-1079,-1371,672,-286,812,409
-1220,-1376,601,-473,1267,-115
-1336,-1453,464,-644,1383,-516
-1441,-1526,367,-730,1467,-813
-1412,-1430,364,-766,1658,-1158
-1461,-1560,314,-856,1834,-1553
-1343,-1709,156,-915,1660,-1794
-1234,-1865,27,-920,1367,-1780
-1152,-1998,-38,-836,1127,-1705
-1081,-2064,11,-694,1022,-1704
-1118,-2077,95,-577,1278,-2065
-965,-2150,-53,-498,1535,-2742
