ax,ay,az,gx,gy,gz
-835,-2128,52,601,714,505
-820,-1925,-45,1045,-156,606
-679,-1871,-144,997,-946,418
-627,-1810,-156,896,-1325,407
-697,-1741,-94,798,-1416,343
-764,-1748,-119,751,-1292,120
-725,-1792,-175,715,-871,-148
-753,-1851,-117,659,-445,-572
-959,-1811,151,612,203,-948
-1105,-1877,147,446,843,-1284
-986,-1808,90,473,867,-1423
-913,-1771,92,515,462,-1178
-916,-1817,68,359,165,-853
-843,-1808,9,188,14,-660
-794,-1850,-43,116,-73,-527
-813,-1981,-75,186,-13,-502
-773,-2066,-134,279,90,-438
-663,-2019,-121,344,8,-200
-605,-1983,-29,389,-75,147
-689,-2036,78,342,19,315
-700,-2060,107,232,253,130
-650,-1988,125,263,576,-128
-645,-1982,91,327,755,-311
-633,-2029,66,393,710,-425
-589,-2062,60,491,555,-370
-527,-2036,53,513,274,-134
-474,-2033,-2,461,61,138
-474,-2081,-96,440,-13,382
-511,-2101,-110,473,-60,562
-535,-2076,-98,505,-138,719
-553,-2013,-33,540,-206,849
-551,-1915,27,526,-252,959
-553,-1835,38,424,-290,1068
-578,-1833,15,283,-289,1248
-505,-1796,-49,25,-183,1539
-548,-1668,-6,-437,219,1895
-752,-1753,44,-889,559,2139
-892,-1787,3,-1252,589,1918
-1015,-1837,-83,-1459,605,1574
-1138,-1830,-43,-1428,715,1188
-1119,-1758,-8,-1483,801,657
-1077,-1751,-47,-1590,899,76
-1107,-1820,-33,-1593,858,-313
-1074,-1798,-57,-1530,648,-439
-989,-1731,-66,-1587,497,-441
-947,-1759,-126,-1903,520,-378
-997,-1933,-223,-2069,553,-346
-1007,-2039,-302,-1978,431,-354
-1015,-2116,-344,-1784,234,-339
-1102,-2272,-503,-1565,22,-293
-1035,-2153,-409,-1296,-496,-228
-870,-1982,-423,-1231,-1017,-123
-911,-1940,-370,-1123,-1164,57
-883,-1729,-79,-1026,-1293,281
-796,-1595,-19,-1117,-721,309
-951,-1760,-250,-1192,588,55
-1109,-1758,-278,-921,1332,-252
-1241,-1721,-387,-574,1346,-565
-1294,-1870,-536,-145,847,-740
-1290,-1920,-474,267,-250,-687
-1177,-1775,-517,507,-1217,-661
-941,-1533,-477,520,-1342,-711
-813,-1471,-375,334,-823,-691
-821,-1580,-305,173,-451,-515
-814,-1626,-251,67,-198,-354
-871,-1676,-260,-57,224,-336
-933,-1770,-283,-159,553,-461
-957,-1864,-343,-223,884,-725
-932,-1943,-537,-206,1083,-1078
-837,-1936,-533,-20,1003,-1317
-718,-1811,-368,89,879,-1516
-552,-1770,-318,-44,1278,-1918
-388,-1923,-512,-234,1640,-2180
-391,-2068,-671,-202,1567,-2100
-349,-2026,-600,-84,1570,-2046
-240,-1968,-587,-62,1902,-2019
-186,-1951,-620,-52,1821,-1711
-206,-1931,-586,-84,1424,-1207
-202,-1888,-564,-153,1190,-778
-290,-1949,-500,-292,1081,-559
-424,-2010,-551,-430,1215,-708
-334,-1906,-576,-385,1459,-1006
-339,-1972,-591,-364,1320,-1041
-312,-1968,-646,-392,1162,-1016
-284,-1956,-675,-382,1096,-941
-274,-1987,-741,-348,981,-818
-252,-1966,-803,-253,763,-631
-234,-1892,-762,-161,529,-303
-257,-1900,-754,-166,351,100
-197,-1930,-827,-247,205,446
-130,-1978,-888,-236,-16,827
-193,-2022,-860,-131,-437,1214
-297,-1973,-792,-103,-1083,1566
-377,-1976,-782,-140,-1716,1972
-467,-1908,-655,-70,-1937,2343
-591,-1906,-518,-167,-1642,2547
-582,-2029,-640,-269,-1622,2414
-549,-1961,-645,-105,-1568,2287
-692,-1934,-573,19,-1230,2029
-850,-2048,-501,-31,-836,1540
-806,-2010,-559,-125,-436,965
-706,-2007,-680,-106,-269,566
-594,-1983,-747,-27,-282,391
-534,-1933,-720,41,-142,389
-496,-1861,-634,50,294,444
-557,-1879,-648,60,592,485
-716,-1940,-599,140,622,415
-847,-1965,-362,160,935,-30
-998,-1961,-381,-29,1689,-986
-991,-1821,-552,-224,2707,-2187
-882,-1825,-557,-287,3237,-3038
-783,-1951,-680,-282,2964,-3289
-630,-1877,-659,-276,2546,-3197
-402,-1892,-745,-411,1991,-2936
-196,-1885,-878,-500,1359,-2489
-46,-1888,-967,-458,823,-1985
69,-1859,-1034,-330,529,-1618
120,-1798,-996,-162,288,-1198
171,-1726,-839,-26,97,-824
182,-1697,-773,-31,300,-687
116,-1749,-808,-55,425,-624
83,-1813,-843,-33,363,-512
51,-1871,-853,5,277,-348
65,-1912,-852,61,149,-169
115,-1913,-826,133,-54,22
129,-1938,-813,203,-346,261
149,-2047,-917,302,-801,575
225,-2158,-1040,496,-1797,1110
220,-1999,-1030,784,-2925,1785
218,-2106,-1208,930,-3895,2546
207,-2260,-1367,1205,-5225,3468
-86,-2153,-1169,1728,-6147,4268
-470,-1962,-633,2117,-6102,4594
-850,-1751,75,2341,-5272,4589
-890,-1215,935,2127,-2922,4013
-1046,-1231,727,1087,484,2666
-1318,-1670,189,228,1730,1539
-1363,-1733,-42,-186,1330,717
-1229,-1632,-220,-364,1203,-4
-905,-1530,-317,-532,1343,-520
-720,-1607,-459,-787,1526,-701
-746,-1734,-459,-954,1612,-653
-971,-1890,-537,-1094,2007,-830
-962,-1965,-839,-1062,2630,-1492
-769,-1936,-847,-855,2855,-2083
-760,-1973,-836,-702,2774,-2312
-701,-1938,-810,-622,2683,-2343
-625,-1992,-817,-594,2459,-2234
-508,-2061,-924,-532,2315,-2177
-346,-2066,-947,-350,2153,-2108
-209,-2049,-932,-149,1921,-1992
-68,-1975,-853,8,1599,-1801
-4,-1998,-820,60,1372,-1552
13,-2018,-856,106,1222,-1322
-3,-1982,-772,173,1067,-1082
-30,-1947,-631,155,1002,-882
-46,-1959,-673,59,907,-746
-73,-1941,-688,-59,755,-654
-97,-1958,-781,-194,629,-656
-64,-1968,-826,-164,445,-566
-29,-1975,-859,-101,104,-299
-28,-1960,-893,-33,-296,59
-28,-1938,-904,44,-753,440
34,-1993,-1042,192,-1408,876
122,-1953,-1101,470,-2298,1508
66,-1905,-1111,846,-3299,2332
-139,-1853,-1042,1146,-4293,3239
-425,-1814,-843,1484,-4984,3936
-710,-1796,-547,1721,-5126,4198
-849,-1700,-253,1740,-4797,4078
-1055,-1743,-133,1651,-4032,3773
-1096,-1624,-98,1598,-3357,3321
-1072,-1579,-7,1450,-2637,2616
-961,-1441,301,1103,-1221,1734
-890,-1485,268,327,975,522
-891,-1639,98,-468,2745,-610
-890,-1866,-212,-993,3692,-1462
-853,-1983,-429,-1272,3939,-1922
-921,-2186,-674,-1357,3988,-2329
-963,-2408,-938,-1066,3601,-2680
-689,-2195,-918,-599,3138,-3000
-470,-2085,-825,-215,2990,-3249
-153,-1968,-585,-89,2612,-3175
-253,-1920,-631,-337,1817,-2124
-424,-1927,-597,-316,1421,-1417
-428,-1951,-651,-301,1300,-1193
-337,-1917,-670,-272,1064,-1186
-184,-1829,-677,-151,1225,-1516
-120,-1891,-738,2,1463,-1752
-147,-1934,-755,116,1232,-1650
-118,-1897,-739,203,822,-1369
-94,-1913,-758,203,540,-1064
-81,-1909,-796,180,234,-724
-86,-1907,-827,194,20,-417
-163,-1965,-860,177,-191,-55
-178,-2001,-895,172,-585,360
-118,-2034,-925,236,-999,734
-44,-2026,-926,404,-1419,1101
-13,-2123,-1026,600,-1968,1574
10,-2161,-1083,930,-2834,2201
-97,-2047,-941,1338,-3652,2898
-357,-1945,-648,1658,-3934,3383
-538,-1988,-440,1795,-3919,3561
-660,-1930,-228,1742,-3606,3393
-768,-1793,-51,1675,-3121,3137
-826,-1787,-18,1498,-2497,2757
-806,-1856,-13,1247,-1851,2245
-739,-1789,112,978,-1150,1641
-556,-1580,389,483,126,706
-582,-1520,360,-247,1893,-430
-705,-1679,192,-902,3133,-1343
-956,-2096,-98,-1360,3641,-1915
-1059,-2069,-380,-1379,3454,-2391
-917,-1917,-512,-1285,3064,-2901
-691,-1994,-722,-1208,2832,-3214
-374,-1929,-742,-1004,2598,-3040
-263,-1948,-748,-782,1795,-2361
-321,-1957,-727,-607,1024,-1661
-341,-1934,-748,-492,640,-1175
-352,-1983,-812,-399,368,-815
-329,-1988,-855,-247,165,-582
-290,-1991,-815,-44,-83,-387
-245,-1936,-735,90,-216,-237
-247,-1944,-703,136,-169,-99
-213,-1976,-740,173,-249,104
-207,-2043,-802,238,-398,342
-180,-2189,-971,394,-695,667
-115,-2248,-1047,730,-1331,1190
-143,-2173,-936,1160,-2101,1831
-265,-2114,-755,1521,-2673,2330
-458,-2130,-580,1755,-3047,2647
-576,-2110,-459,1905,-3244,2683
-667,-1851,-97,2018,-3111,2527
-727,-1553,379,1756,-2266,2131
-700,-1454,571,990,-675,1402
-727,-1569,466,179,624,742
-722,-1665,335,-513,1500,83
-682,-1654,224,-1068,2523,-785
-908,-1947,-86,-1450,3293,-1730
-944,-2049,-526,-1542,2872,-2433
-670,-1904,-484,-1427,2388,-2747
-519,-1922,-472,-1413,2607,-2839
-354,-2007,-747,-1388,2614,-2845
-304,-1947,-782,-1087,2163,-2536
-357,-2000,-737,-869,1551,-2062
-347,-1970,-738,-777,1072,-1643
-300,-1936,-775,-685,707,-1233
-277,-1961,-774,-564,302,-794
-246,-1936,-742,-428,150,-476
-157,-1980,-827,-326,68,-263
-71,-2080,-943,-173,-189,29
-7,-2138,-1033,59,-487,441
30,-2242,-1116,366,-939,968
48,-2216,-1044,757,-1523,1593
-42,-2095,-844,1108,-1953,2138
-170,-2070,-737,1340,-2309,2499
-322,-2049,-640,1504,-2778,2800
-546,-2064,-504,1647,-3220,3065
-704,-1954,-269,1790,-3434,3202
-691,-1642,140,1692,-3075,2876
-624,-1426,519,1183,-1704,2051
-621,-1543,324,388,159,956
-813,-1834,-33,-187,869,152
-914,-1844,-38,-380,980,-297
-837,-1803,-36,-582,1480,-854
-766,-1888,-138,-807,2023,-1361
-731,-1826,-167,-946,2249,-1833
-882,-1864,-239,-1185,2467,-2478
-899,-2057,-627,-1342,2775,-3142
-628,-2022,-744,-1197,2659,-3365
-460,-2069,-829,-999,2035,-3119
-290,-1981,-789,-818,1411,-2684
-186,-1970,-769,-697,778,-2078
-70,-1936,-857,-652,387,-1649
-11,-1987,-965,-546,273,-1285
-34,-2025,-970,-341,168,-860
-26,-2009,-916,-154,19,-471
18,-1981,-862,-5,-164,-66
19,-1984,-812,126,-349,316
13,-2008,-811,245,-557,641
18,-2064,-840,400,-813,953
9,-2119,-849,619,-1193,1282
-28,-2134,-848,895,-1616,1638
-74,-2148,-817,1197,-2082,2032
-179,-2187,-725,1522,-2675,2478
-308,-2212,-599,1840,-3221,2779
-420,-2200,-483,2102,-3542,2829
-436,-1975,-205,2220,-3617,2815
-572,-1741,62,2053,-3261,2820
-815,-1747,155,1708,-2683,2710
-938,-1665,248,1452,-2169,2434
-956,-1462,463,1087,-1376,1968
-914,-1274,692,510,24,1131
-917,-1229,1039,-446,1816,-202
-1166,-1321,573,-1642,3836,-1962
-1053,-1589,-132,-2329,4742,-3517
-800,-2018,-433,-2395,3828,-3786
-839,-2475,-863,-1992,2602,-3228
-483,-2034,-889,-1489,1834,-2623
-304,-2035,-904,-1158,1400,-1950
-270,-2038,-851,-850,861,-1221
-296,-1983,-840,-617,411,-704
-305,-2006,-867,-377,169,-403
-296,-2059,-872,-157,-93,-107
-289,-2116,-839,59,-452,266
-311,-2094,-772,302,-788,613
-322,-2053,-682,523,-1009,855
-332,-2043,-602,688,-1145,1026
-375,-1992,-418,776,-1132,1114
-414,-1945,-308,731,-927,1070
-473,-1945,-291,613,-744,965
-514,-1966,-287,497,-630,863
-556,-1973,-233,383,-507,756
-563,-1941,-208,240,-307,557
-517,-1908,-184,71,-103,336
-532,-1921,-231,-106,-21,235
-609,-1942,-292,-189,-4,200
-641,-1940,-336,-219,37,145
-637,-1929,-385,-228,70,80
-679,-1914,-387,-228,44,62
-689,-1935,-439,-231,59,33
-651,-1969,-541,-200,33,-16
-631,-2034,-650,-97,-36,-50
-645,-2171,-816,80,-241,92
-673,-2544,-1047,422,-909,571
-682,-2117,-803,917,-1928,1303
-774,-1915,-431,876,-2447,1853
-742,-2050,-340,857,-2639,2261
-893,-1723,-121,1005,-2185,2274
-945,-1537,-65,923,-1609,1793
-962,-1538,-26,864,-1131,1313
-1053,-1733,-68,677,-865,948
-1032,-1779,-217,515,-748,587
-839,-1733,-313,336,-542,64
-653,-1800,-171,298,-283,-514
-775,-1775,59,254,50,-789
-911,-1901,131,-62,310,-869
-1069,-2193,-169,-342,397,-876
-908,-1887,-98,-291,222,-913
-785,-1612,74,-449,271,-1064
-715,-1670,77,-873,703,-1152
-888,-1879,166,-1241,1121,-761
-779,-1790,175,-1557,1877,-817
-277,-1460,252,-1800,2850,-1430
-213,-1462,38,-2084,3819,-2138
-671,-1823,-237,-2084,3758,-2291
-983,-2338,-601,-1759,3205,-2286
-597,-1944,-819,-1263,2640,-2252
-291,-1865,-864,-885,2035,-1923
-236,-1933,-897,-565,1382,-1357
-252,-1918,-870,-381,745,-786
-316,-1924,-792,-270,304,-365
-418,-1981,-729,-253,73,-147
-444,-2069,-864,-205,248,-249
-332,-2020,-815,0,627,-416
-315,-2029,-759,142,658,-382
-310,-2093,-777,133,610,-334
-256,-2157,-872,101,473,-262
-216,-2145,-851,153,223,-76
-191,-2097,-790,231,-31,158
-201,-2076,-759,307,-321,403
-254,-2072,-739,387,-613,624
-299,-2052,-688,475,-856,802
-285,-2008,-609,558,-1100,991
-275,-1964,-571,583,-1304,1125
-356,-1899,-434,527,-1392,1221
-465,-1839,-194,286,-1058,1079
-497,-1845,-214,-65,-333,653
-475,-1846,-235,-349,182,260
-479,-1816,-319,-574,562,-100
-491,-1850,-445,-758,937,-507
-468,-1906,-542,-863,1180,-921
-486,-1913,-470,-956,1261,-1154
-617,-1974,-573,-1095,1614,-1515
-507,-2045,-811,-1109,1938,-1946
-422,-2101,-987,-884,1978,-2094
-416,-2073,-991,-558,1674,-1894
-330,-2034,-935,-397,1229,-1644
-155,-1943,-915,-349,927,-1379
-24,-1872,-859,-312,617,-1002
34,-1858,-880,-305,291,-611
20,-1892,-981,-250,59,-290
-21,-1933,-960,-146,-55,-35
-10,-1954,-902,-51,-5,118
8,-2025,-953,44,-72,262
43,-2118,-1058,203,-362,510
63,-2150,-1084,457,-794,886
97,-2147,-1070,764,-1310,1339
114,-2123,-1030,1086,-1854,1829
72,-2079,-938,1421,-2540,2439
-74,-2030,-803,1720,-3351,2983
-262,-1985,-658,1957,-3921,3250
-404,-1826,-372,2088,-3955,3325
-535,-1719,-127,1980,-3514,3186
-701,-1722,45,1637,-2933,2780
-822,-1610,471,1175,-2070,2174
-730,-1320,760,444,63,1015
-793,-1394,444,-528,2271,-456
-1066,-1699,163,-1203,3010,-1438
-1057,-1714,-128,-1698,3254,-2279
-856,-1756,-434,-2006,3519,-2968
-671,-1996,-706,-2053,3263,-3013
-502,-2115,-952,-1837,2582,-2612
-247,-2016,-1046,-1523,1739,-2076
-178,-2041,-1101,-1234,1116,-1496
-206,-2023,-1104,-883,659,-1015
-239,-2005,-1087,-572,243,-646
-257,-2013,-1096,-296,-171,-299
-227,-1979,-1054,-25,-580,87
-171,-1955,-1032,201,-985,480
-174,-1953,-996,409,-1347,828
-221,-1969,-944,592,-1611,1127
-298,-2077,-936,747,-1749,1344
-314,-2250,-1057,995,-1973,1560
-284,-2184,-988,1401,-2562,1950
-445,-2091,-751,1796,-2995,2246
-602,-1922,-416,2010,-2808,2170
-683,-1739,-15,1846,-2174,1842
-762,-1702,89,1298,-1153,1275
-731,-1674,151,671,-10,582
-689,-1601,109,80,1107,-115
-649,-1433,264,-496,1866,-767
-677,-1429,301,-1295,2795,-1572
-741,-1705,-124,-2123,3772,-2469
-823,-2212,-699,-2450,3779,-2832
-582,-2159,-909,-2044,2867,-2716
-244,-1993,-951,-1692,2235,-2501
-112,-2044,-1068,-1392,1812,-2075
-109,-1990,-1069,-1063,1252,-1515
-118,-1963,-1036,-801,807,-1029
-51,-2096,-1037,-651,427,-535
-164,-1975,-1212,-483,-150,96
-334,-1880,-1353,-180,-996,710
-211,-2116,-1542,279,-2088,1237
-56,-2106,-1415,923,-3158,1924
-209,-1854,-927,1431,-3640,2475
-477,-1746,-315,1425,-2994,2544
-690,-1772,-155,1068,-1632,2143
-738,-1737,-275,707,-484,1595
-803,-1842,-476,478,-46,1114
-720,-1870,-411,347,207,667
-504,-1744,-289,101,1274,5
-504,-1838,-550,-160,2109,-622
-555,-1957,-772,-225,1661,-737
-478,-2047,-802,-160,1290,-746
-335,-2040,-850,-107,1306,-684
-226,-2093,-915,-87,833,-330
-341,-2060,-834,20,242,146
-459,-1952,-654,92,-34,413
-556,-1845,-548,1,-215,473
-570,-1877,-616,-87,-521,490
-578,-1861,-608,-31,-753,529
-689,-1829,-569,-15,-778,522
-734,-1841,-589,-65,-735,419
-650,-2049,-738,-135,-480,289
-529,-2118,-997,-186,-710,518
-505,-1829,-927,-28,-957,917
-681,-1730,-740,208,-627,1096
-895,-1739,-583,316,-531,1084
-1074,-1915,-640,323,-796,975
-1045,-1638,-666,520,-1156,796
-1016,-1579,-547,478,-1167,422
-968,-1762,-588,367,-1315,122
-895,-1754,-579,375,-1582,-75
-799,-1763,-506,300,-1588,-320
-435,-1694,-244,56,-1148,-582
-515,-1632,-139,-378,167,-915
-539,-1736,-162,-912,1304,-1376
-513,-1822,-208,-1377,2228,-1699
-549,-1870,-449,-1708,2953,-1875
-568,-1994,-690,-1774,3164,-1949
-599,-2139,-862,-1543,2930,-1898
-340,-1935,-806,-1136,2332,-1730
-212,-1847,-782,-940,2059,-1550
-183,-1853,-875,-905,1860,-1314
-191,-1876,-885,-834,1511,-1011
-262,-1917,-958,-773,1206,-774
-266,-1869,-949,-710,946,-683
-255,-1930,-885,-662,724,-608
-178,-1839,-806,-653,877,-657
-132,-1785,-861,-732,963,-703
-133,-1861,-1029,-779,740,-569
-136,-1939,-1219,-695,495,-359
-74,-2012,-1437,-482,81,-100
-53,-1947,-1444,-123,-492,291
-136,-1835,-1297,250,-932,678
-172,-1932,-1354,492,-1532,1073
-148,-2060,-1536,784,-2492,1583
-156,-1948,-1455,1271,-3588,2163
-285,-1811,-1176,1714,-4306,2657
-371,-1699,-668,1935,-4283,2853
-520,-1588,-95,1687,-2860,2325
-915,-1800,-315,975,-671,1266
-1036,-1953,-637,577,258,518
-888,-1926,-665,517,156,146
-712,-1875,-630,535,111,-126
-432,-1729,-424,452,412,-430
-473,-1631,-241,95,1264,-894
-718,-1646,-96,-406,2323,-1700
-1015,-1988,-457,-906,3430,-2949
-659,-2132,-731,-1134,3299,-3388
-301,-1988,-829,-1090,2828,-3040
-69,-1929,-868,-943,2233,-2565
31,-1903,-930,-920,1613,-1963
70,-1875,-983,-881,1220,-1382
82,-1844,-1038,-761,826,-866
0,-1838,-1091,-588,335,-368
-82,-1792,-1071,-421,-226,100
-110,-1861,-1258,-314,-859,589
-208,-1950,-1182,-126,-1575,1201
-352,-1682,-685,125,-1259,1277
-327,-1562,-523,4,-225,617
-344,-1784,-806,-286,7,261
-358,-1947,-1164,-354,-124,218
-246,-2077,-1405,-117,-299,219
-177,-2148,-1502,319,-794,427
-82,-2219,-1566,775,-1555,799
-85,-2076,-1437,1167,-2192,1264
-123,-1988,-1152,1402,-2590,1634
-88,-1721,-702,1434,-2587,1827
-146,-1600,-342,1073,-2006,1787
-331,-1778,-411,546,-1252,1641
-606,-1970,-640,259,-637,1459
-730,-2090,-866,247,-452,1225
-609,-1915,-816,400,-638,997
-575,-1869,-690,514,-663,694
-649,-1866,-644,487,-616,412
-707,-1974,-731,427,-836,365
-751,-1986,-860,435,-1388,594
-812,-1934,-804,606,-2007,828
-1044,-2170,-773,759,-2792,1016
-1323,-1816,-861,1203,-3802,951
-186,-1038,280,1466,-3695,501
-346,-1340,321,779,-1413,-72
-904,-1548,-22,17,-321,-136
-812,-1428,199,-344,68,-354
-901,-1607,64,-918,1207,-943
-738,-1592,-115,-1395,2242,-1439
-643,-1584,-228,-1662,2705,-1379
-789,-1724,-476,-1827,2833,-1081
-757,-1671,-666,-1879,2802,-965
-603,-1802,-858,-1897,3022,-1081
-677,-2071,-1201,-1651,3125,-1130
-661,-2137,-1276,-1216,2540,-1033
-526,-2101,-1281,-813,1896,-1001
-378,-2003,-1145,-433,1343,-919
-256,-1968,-993,-207,722,-685
-176,-1986,-956,-44,433,-468
-113,-2025,-923,105,462,-369
-95,-1970,-881,228,630,-292
-162,-1978,-802,334,546,-266
-338,-2093,-956,443,314,-327
-295,-1950,-909,478,26,-295
-252,-1878,-906,518,-6,-435
-291,-1896,-945,571,-52,-415
-405,-1945,-952,533,-237,-194
-314,-1879,-899,501,-494,-51
-217,-1757,-832,506,-564,-78
-244,-1755,-812,444,-505,4
-318,-1775,-810,345,-444,83
-358,-1777,-790,244,-479,164
-402,-1810,-791,184,-623,228
-411,-1844,-845,177,-761,310
-407,-1875,-914,239,-848,395
-436,-1896,-919,362,-998,516
-471,-1919,-883,457,-1162,653
-505,-1929,-840,492,-1179,781
-528,-1931,-770,505,-1122,923
-569,-1948,-717,520,-1117,1079
-589,-1942,-663,530,-1126,1216
-577,-1900,-608,517,-1012,1282
-644,-1917,-578,492,-781,1306
-741,-2043,-659,483,-760,1419
-690,-2122,-807,562,-1123,1583
-668,-2158,-819,802,-1564,1744
-687,-2038,-643,1173,-1783,1763
-670,-1886,-422,1307,-1704,1640
-671,-1816,-295,1176,-1417,1389
-761,-1715,-194,990,-1127,1253
-855,-1697,-143,782,-866,1221
-909,-1657,-87,527,-529,1014
-930,-1559,12,241,-28,710
-944,-1546,9,-112,578,268
-964,-1580,-76,-465,1072,-133
-1007,-1662,-268,-726,1344,-408
-993,-1714,-438,-879,1354,-618
-993,-1901,-495,-962,1598,-987
-918,-2013,-681,-716,1987,-1541
-926,-1892,-662,-351,2270,-1806
-1007,-1855,-738,-163,2344,-1914
-845,-1821,-758,-149,1985,-1886
-675,-1890,-811,-173,1429,-1583
-605,-1981,-872,-180,908,-1133
-557,-1936,-861,-119,509,-732
-504,-1894,-812,-25,246,-455
-425,-1932,-805,64,122,-289
-333,-1973,-804,160,47,-204
-276,-1958,-726,267,77,-220
-319,-1961,-593,324,334,-339
-405,-1960,-605,291,616,-506
-417,-1974,-638,245,701,-642
-408,-1998,-660,218,621,-631
-459,-2016,-658,224,392,-470
-449,-1974,-590,254,5,-184
-359,-1887,-516,222,-439,156
-389,-1932,-548,108,-810,458
-421,-1990,-677,151,-1161,731
-451,-1868,-663,369,-1470,1005
-533,-1878,-604,333,-1716,1350
-623,-1864,-536,372,-1860,1585
-704,-1741,-366,445,-1852,1765
-819,-1689,-191,388,-1587,1804
-960,-1676,-152,276,-1172,1637
-1085,-1752,-268,166,-875,1386
-1070,-1771,-348,134,-799,1189
-975,-1729,-391,120,-775,1100
-929,-1740,-450,27,-706,1055
-955,-1786,-546,-45,-617,990
-1020,-1902,-621,-44,-557,1015
-1068,-2050,-707,28,-677,1065
-1044,-1998,-694,197,-919,1110
-1030,-1899,-589,363,-1071,1256
-1034,-1816,-476,426,-1116,1400
-1034,-1766,-352,451,-1063,1453
-1015,-1729,-261,431,-961,1338
-1004,-1728,-212,382,-789,1047
-997,-1705,-174,309,-524,608
-972,-1727,-171,226,-234,174
-934,-1766,-221,130,-15,-184
-940,-1735,-234,75,82,-261
-979,-1718,-194,-4,93,-192
-1010,-1701,-149,-94,119,-167
-1016,-1657,-87,-201,239,-250
-951,-1588,-83,-419,571,-569
-764,-1399,16,-633,1276,-933
-766,-1400,24,-1003,2447,-1486
-871,-1267,-123,-1447,3238,-2100
-1108,-1861,-395,-1651,3498,-2625
-1340,-2781,-1114,-1217,2982,-2914
-946,-2045,-1167,-348,2085,-2771
-700,-1706,-879,39,1421,-2120
-700,-1781,-762,79,904,-1474
-697,-1830,-725,-55,500,-898
-673,-1883,-775,-105,283,-527
-633,-1905,-822,-16,244,-419
-554,-1932,-764,104,403,-440
-458,-1962,-725,172,973,-637
-476,-1977,-822,235,1411,-858
-508,-2012,-864,362,1252,-946
-561,-2065,-826,509,1065,-948
-573,-2121,-818,593,851,-817
-464,-2242,-945,646,379,-497
-258,-2186,-959,831,-350,150
-228,-2000,-748,1128,-1065,934
-384,-1908,-499,1405,-1651,1591
-537,-1742,-198,1583,-2003,2168
-828,-1848,-144,1366,-1927,2352
-835,-1856,-254,758,-1886,1844
-829,-1894,-311,603,-2076,1807
-863,-1828,-178,756,-2367,2081
-868,-1742,-26,751,-2426,2091
-781,-1559,100,619,-1950,1896
-842,-1509,89,413,-900,1686
-1061,-1875,-180,217,-400,1524
-1113,-1971,-265,140,-687,1463
-1078,-1786,-259,202,-734,1258
-1029,-1627,-157,323,-585,963
-1012,-1471,-113,311,-504,754
-1131,-1473,-103,138,-311,521
-1317,-1560,-191,-36,-296,268
-1341,-1665,-235,-65,-511,31
-1256,-1714,-214,-23,-647,-169
-1122,-1687,-164,16,-600,-312
-1075,-1696,-174,-20,-437,-356
-1161,-1781,-322,-82,-370,-291
-1210,-1833,-382,-53,-548,-256
-1191,-1838,-326,2,-779,-303
-995,-1825,-217,7,-966,-422
-832,-1778,-134,-107,-866,-532
-901,-1778,-178,-209,-548,-602
-764,-1608,-136,-273,-274,-700
-859,-1593,-32,-418,2,-847
-876,-1779,462,-659,682,-1128
-752,-1627,467,-1201,2026,-1660
-721,-1584,251,-1723,3256,-2180
-949,-2197,-148,-1602,3483,-2510
-751,-1886,-347,-1099,2592,-2285
-538,-1835,-424,-1006,1980,-2004
-478,-1937,-568,-920,1644,-1682
-448,-2001,-690,-776,1136,-1271
-475,-2020,-705,-586,784,-941
-559,-2034,-616,-439,713,-858
-581,-1970,-537,-359,967,-960
-537,-1923,-534,-288,1323,-1059
-534,-1983,-592,-237,1451,-1042
-520,-2010,-686,-218,1489,-905
-512,-1984,-710,-191,1407,-618
-520,-2000,-643,-180,1194,-289
-483,-1965,-631,-213,1181,-105
-499,-1954,-762,-241,1170,-29
-517,-1981,-831,-185,908,79
-491,-1972,-777,-86,681,191
-466,-1967,-713,-23,478,321
-434,-1984,-702,5,256,466
-412,-2002,-748,23,-16,637
-404,-2081,-837,80,-396,868
-368,-2107,-864,229,-846,1187
-367,-2039,-787,414,-1282,1559
-452,-1969,-655,556,-1651,1895
-573,-1957,-534,555,-1900,2055
-706,-1999,-472,501,-2021,2020
-691,-1936,-361,538,-2020,1844
-654,-1751,-176,469,-1494,1455
-779,-1705,-183,266,-714,1080
-926,-1733,-209,86,-336,810
-999,-1696,-137,-76,-135,546
-968,-1571,-15,-325,451,135
-1032,-1682,-78,-592,1001,-305
-891,-1609,-80,-768,1176,-681
-875,-1675,-211,-987,1802,-1180
-971,-1858,-618,-1119,2119,-1745
-872,-1892,-855,-979,1992,-2151
-732,-1900,-894,-796,1757,-2170
-587,-1949,-928,-630,1418,-1960
-480,-1968,-942,-471,1078,-1610
-479,-1924,-912,-320,786,-1164
-480,-1926,-848,-227,513,-777
-447,-1950,-869,-167,298,-479
-375,-1976,-923,-33,33,-203
-345,-1984,-818,154,-132,25
-321,-1943,-669,260,118,46
-327,-1937,-677,257,321,-25
-377,-2099,-820,253,288,4
-397,-2186,-913,371,90,157
-315,-2052,-787,599,-265,362
-340,-2028,-644,745,-470,521
-404,-2029,-617,791,-690,708
-487,-2081,-671,746,-1198,935
-545,-2128,-755,803,-2055,1283
-642,-1975,-619,1002,-2782,1611
-723,-1783,-346,1107,-3114,1797
-800,-1708,-186,1056,-3121,1895
-952,-1980,-217,975,-2919,1877
-951,-1671,-214,1049,-2787,1742
-765,-1225,-2,957,-2481,1593
-763,-964,378,453,-1570,1276
-809,-946,634,-395,95,567
-1083,-1225,663,-1481,2062,-459
-1373,-1622,29,-2400,3883,-1831
-1098,-1656,-627,-2632,4383,-3090
-772,-1961,-912,-2327,3736,-3631
-699,-2492,-1238,-1932,3039,-3509
-516,-2465,-1462,-1163,2036,-2991
-193,-2023,-1225,-590,965,-2155
-142,-2062,-1126,-436,526,-1374
-86,-2057,-1076,-275,141,-656
-139,-2099,-1018,-32,-343,-35
-193,-2083,-968,209,-679,368
-189,-2031,-798,418,-855,639
-184,-1938,-554,510,-651,774
-217,-1923,-478,439,-192,675
-276,-1959,-521,338,166,479
-375,-1941,-547,271,290,413
-445,-1892,-518,172,225,414
-442,-1854,-493,29,113,399
-454,-1881,-558,-66,-47,447
-479,-1875,-627,-73,-260,557
-517,-1882,-678,-23,-547,718
-586,-1892,-720,43,-859,899
-665,-1873,-711,123,-1166,1056
-707,-1855,-674,212,-1401,1142
-736,-1834,-609,289,-1412,1146
-792,-1792,-511,328,-1174,1064
-834,-1773,-486,263,-779,850
-871,-1776,-513,154,-417,555
-908,-1798,-549,61,-145,266
-921,-1817,-596,-26,88,30
-868,-1845,-688,-86,163,-106
-792,-1895,-745,-48,144,-77
-775,-1951,-764,9,74,33
-802,-2044,-849,84,-77,134
-718,-2103,-935,255,-446,310
-680,-2091,-839,517,-799,517
-666,-1897,-625,763,-965,624
-619,-1480,-292,766,-899,562
-656,-1166,268,308,-161,45
-1043,-1882,328,-603,1461,-948
-1295,-2271,-500,-931,2789,-2190
-907,-1963,-696,-674,2690,-2972
-648,-2066,-685,-478,2102,-2984
-341,-1994,-662,-376,1630,-2548
-175,-1980,-743,-405,1152,-1882
-191,-2053,-825,-366,560,-1114
-336,-2073,-742,-296,142,-589
-362,-1963,-638,-228,156,-556
-372,-1856,-517,-163,263,-623
-559,-1895,-429,-235,247,-617
-519,-1842,-494,-348,441,-838
-335,-1843,-644,-369,510,-1043
-308,-1909,-800,-273,201,-879
-325,-1947,-891,-176,-15,-640
-252,-1917,-886,-68,-205,-434
-206,-1888,-871,26,-480,-158
-165,-1884,-925,99,-696,144
-130,-1858,-918,181,-842,464
-138,-1868,-897,248,-1069,832
-183,-1922,-928,308,-1439,1229
-225,-1990,-932,444,-1803,1604
-276,-2015,-866,655,-2060,1898
-335,-1988,-722,872,-2148,2064
-413,-1932,-557,1012,-1942,2046
-478,-1867,-372,1066,-1557,1857
-551,-1722,-83,930,-816,1474
-737,-1765,86,451,188,790
-825,-1819,19,-172,1174,-197
-763,-1732,-130,-631,2166,-1269
-707,-1859,-295,-969,2827,-2036
-678,-2316,-757,-1069,2646,-2295
-380,-2189,-977,-810,1893,-2117
-273,-2152,-982,-549,1258,-1639
-253,-2059,-868,-381,729,-1054
-254,-1959,-792,-282,398,-657
-285,-1931,-790,-161,205,-450
-321,-1890,-791,-63,-20,-263
-370,-1896,-824,14,-288,-15
-362,-1903,-878,110,-669,294
-345,-1893,-873,275,-1063,679
-381,-1917,-836,495,-1527,1155
-403,-1864,-747,676,-2002,1533
-503,-1864,-706,782,-2108,1717
-591,-1888,-658,867,-2010,1834
-636,-1911,-561,850,-1880,1876
-678,-1959,-445,898,-1660,1790
-683,-1792,-184,933,-1110,1501
-804,-1735,-16,650,-187,900
-850,-1853,-141,179,793,15
-751,-1902,-293,-87,1305,-660
-535,-1705,-256,-247,1427,-1000
-471,-1672,-144,-584,1757,-1269
-598,-2107,-402,-991,2139,-1519
-528,-2253,-806,-924,1856,-1592
-364,-2099,-849,-668,1281,-1374
-376,-2137,-784,-473,958,-1039
-391,-2086,-720,-381,660,-740
-386,-1977,-604,-360,538,-573
-401,-1905,-540,-319,897,-618
-453,-1940,-611,-317,1024,-679
-465,-1932,-666,-284,915,-618
-432,-1885,-698,-257,801,-472
-421,-1889,-729,-248,544,-245
-409,-1897,-760,-228,292,-40
-375,-1843,-762,-141,63,140
-357,-1833,-825,-39,-228,342
-341,-1884,-939,38,-600,551
-367,-1923,-967,179,-1004,787
-425,-1924,-875,341,-1357,1032
-495,-1900,-785,451,-1637,1246
-552,-1936,-747,538,-2050,1501
-559,-1930,-635,585,-2428,1710
-586,-1935,-529,549,-2326,1789
-626,-1971,-399,492,-1780,1698
-659,-1979,-432,443,-1003,1356
-668,-2044,-550,394,-541,983
-664,-2151,-612,416,-441,731
-662,-2187,-607,636,-418,545
-522,-1841,-370,830,-150,335
-522,-1790,-301,473,315,126
-595,-1690,-218,58,583,-11
-645,-1517,36,-339,1119,-286
-1014,-1887,-279,-782,1829,-984
-1308,-1868,-371,-736,1895,-1839
-1114,-1906,-587,-771,2015,-2769
-598,-1918,-696,-698,2215,-3253
-309,-1926,-715,-598,1726,-2894
-294,-1941,-760,-548,1096,-2263
-250,-1933,-819,-498,781,-1753
-138,-1992,-928,-421,547,-1304
-54,-2040,-1040,-273,175,-763
-40,-2094,-1067,-32,-193,-154
-54,-2084,-995,195,-528,446
-94,-1976,-866,372,-834,937
-206,-1875,-684,514,-947,1290
-345,-1857,-581,549,-851,1477
-451,-1860,-543,466,-688,1505
-490,-1862,-483,353,-451,1371
-526,-1876,-485,283,-47,1117
-528,-1897,-526,223,140,868
-494,-1935,-565,188,110,722
-453,-1966,-584,188,39,638
-462,-1967,-586,194,2,519
-491,-1929,-542,196,-44,323
-532,-1922,-394,183,-12,99
-593,-1881,-260,36,152,-129
-707,-1886,-300,-223,359,-465
-688,-1827,-347,-420,833,-977
-523,-1849,-457,-584,1214,-1363
-397,-1916,-572,-635,1085,-1267
-402,-1963,-676,-645,842,-990
-370,-1999,-820,-632,628,-805
-320,-1994,-893,-524,431,-617
-317,-1964,-879,-362,245,-394
-373,-1923,-801,-227,82,-201
-430,-1895,-764,-182,82,-123
-398,-1989,-896,-185,13,-34
-321,-2137,-1089,-98,-202,186
-225,-2165,-1164,136,-521,579
-232,-2045,-1017,424,-855,1039
-363,-1926,-817,607,-986,1329
-458,-1917,-746,627,-1065,1414
-474,-1935,-772,652,-1467,1516
-523,-1952,-765,754,-2086,1723
-619,-2009,-717,851,-2663,1940
-740,-2082,-670,1036,-3037,2025
-700,-1947,-483,1347,-3145,1915
-678,-1829,-243,1513,-2821,1674
-690,-1737,-40,1434,-2199,1304
-672,-1543,183,1093,-1235,786
-715,-1579,171,487,-30,118
-804,-1727,-39,-25,553,-262
-765,-1575,93,-324,669,-426
-819,-1500,221,-805,1406,-913
-805,-1474,71,-1399,2409,-1712
-838,-1702,-42,-1803,3141,-2415
-973,-2455,-774,-1628,3313,-3142
-514,-2091,-977,-1025,2710,-3389
-310,-2099,-993,-701,2190,-3065
-192,-2129,-935,-462,1538,-2464
-118,-2051,-928,-344,953,-1829
-214,-2090,-945,-226,463,-1130
-309,-2079,-928,-85,-154,-439
-353,-2013,-901,25,-593,106
-382,-1966,-815,158,-905,532
-339,-1982,-834,243,-1313,860
-246,-2077,-990,384,-1875,1300
-196,-2082,-997,628,-2542,1917
-263,-2022,-874,914,-2917,2437
-435,-2054,-693,1154,-2938,2761
-610,-2053,-522,1440,-2749,2780
-676,-1925,-338,1651,-2443,2579
-789,-1939,-210,1730,-2074,2287
-814,-1854,-99,1732,-1588,1937
-794,-1750,-50,1511,-1041,1422
-807,-1711,-10,1223,-598,905
-786,-1671,79,911,-261,461
-706,-1516,260,463,315,56
-715,-1359,423,-149,1164,-465
-916,-1444,483,-886,2027,-1151
-1073,-1623,163,-1523,3127,-2043
-993,-1902,-232,-1816,3211,-2639
-811,-1954,-397,-1782,2844,-2815
-686,-2228,-683,-1619,2780,-2887
-469,-2257,-903,-1045,2148,-2604
-256,-1993,-800,-607,1317,-2030
-305,-2014,-771,-408,884,-1458
-333,-1996,-730,-294,530,-925
-372,-1968,-715,-206,320,-513
-424,-1920,-667,-115,118,-245
-429,-1900,-612,-68,-20,-104
-401,-1938,-661,-80,19,-29
-382,-1994,-717,-76,38,81
-353,-2039,-751,-24,-49,250
-317,-2078,-800,79,-215,440
-255,-2235,-965,236,-442,674
-188,-2350,-1081,504,-963,1160
-176,-2307,-1059,889,-1904,1923
-257,-2252,-946,1205,-2763,2597
-536,-2309,-767,1613,-3223,3016
-674,-2083,-447,2187,-3374,3043
-753,-1800,-105,2457,-3181,2824
-780,-1534,169,2320,-2712,2428
-783,-1419,355,1881,-2060,1910
-823,-1402,449,1373,-1288,1401
-834,-1379,502,802,-458,846
-840,-1292,554,149,584,145
-881,-1347,526,-569,1798,-638
-856,-1482,330,-1159,2723,-1316
-904,-1595,100,-1506,3126,-1829
-934,-1766,-45,-1759,3161,-2274
-921,-1930,-313,-1951,3116,-2592
-968,-2481,-869,-1778,2739,-2807
-633,-2212,-975,-981,1831,-2474
-483,-2025,-771,-535,1185,-1859
-473,-1994,-641,-361,921,-1365
-502,-1986,-615,-328,860,-1015
-570,-1985,-639,-303,935,-872
-588,-2018,-674,-215,1000,-905
-541,-2062,-689,-111,954,-877
-485,-2057,-645,-32,1085,-843
-404,-2074,-700,-24,1183,-901
-309,-2087,-701,37,995,-881
-212,-2030,-649,126,887,-831
-148,-1984,-613,141,758,-730
-91,-1991,-602,106,541,-526
-58,-2042,-651,76,241,-231
-53,-2069,-673,116,-151,125
-177,-2020,-479,235,-332,411
-262,-1922,-370,271,67,321
-243,-1974,-431,199,219,123
-211,-2037,-463,205,236,57
-231,-2001,-401,236,365,32
