ax,ay,az,gx,gy,gz
1191,620,1235,-23,-149,1188
1214,596,1155,-107,-167,1096
1208,582,1067,-156,-143,1050
1178,577,978,-174,-91,1022
1131,579,916,-158,-22,988
1092,579,885,-126,30,934
1078,577,860,-92,63,864
1088,576,827,-62,103,794
1093,563,801,-22,128,732
1109,555,794,24,142,667
1137,552,793,69,165,594
1150,521,784,122,206,537
1167,569,806,195,252,480
1191,560,786,241,355,422
1162,560,852,328,419,443
1097,557,882,383,390,478
1039,579,893,431,365,389
1094,583,945,477,363,196
1202,582,1006,492,338,88
1222,613,1038,505,329,80
1156,641,1072,541,392,67
1129,647,1148,598,484,12
1137,658,1268,639,597,-58
1182,650,1369,640,696,-114
1177,626,1456,640,799,-154
1082,634,1539,619,895,-213
990,665,1589,547,908,-335
972,702,1590,453,818,-545
1050,741,1575,359,668,-812
1214,777,1527,267,482,-1065
1391,799,1482,215,320,-1255
1512,796,1471,216,243,-1362
1598,786,1508,248,245,-1389
1684,750,1590,302,329,-1345
1653,697,1707,379,540,-1244
1516,669,1806,435,787,-1130
1360,695,1866,423,979,-1069
1246,785,1909,375,1047,-1123
1227,895,1956,304,982,-1311
1344,985,1976,198,802,-1563
1543,1061,1973,105,539,-1784
1723,1102,1977,61,275,-1938
1844,1062,2005,43,98,-2013
1811,968,2012,21,-5,-2009
1699,871,2016,-20,-71,-1987
1625,760,2002,-105,-142,-1991
1630,647,1882,-221,-219,-2020
1694,512,1711,-309,-236,-2029
1749,388,1552,-340,-213,-1977
1795,277,1456,-328,-182,-1869
1830,190,1417,-299,-154,-1719
1840,149,1357,-255,-134,-1552
1860,139,1316,-196,-98,-1376
1890,158,1297,-106,-29,-1178
1907,180,1326,22,78,-966
1914,198,1403,154,192,-742
1872,228,1546,275,320,-531
1767,267,1736,324,399,-362
1680,302,1870,278,377,-257
1617,353,1901,168,304,-208
1551,379,1884,48,213,-205
1500,379,1832,-70,117,-228
1453,389,1753,-171,28,-255
1414,403,1688,-249,-57,-274
1425,390,1589,-319,-138,-277
1455,380,1472,-363,-164,-257
1453,388,1377,-372,-156,-226
1447,397,1298,-363,-186,-203
1437,404,1242,-352,-262,-195
1421,409,1194,-344,-346,-198
1421,414,1140,-319,-418,-202
1469,421,1077,-262,-446,-186
1499,428,1043,-163,-399,-130
1509,428,1021,-37,-308,-46
1542,410,1022,103,-184,48
1578,392,1036,249,-43,153
1626,366,1057,392,91,267
1666,345,1099,528,219,402
1656,323,1164,652,324,555
1639,282,1250,766,363,689
1559,291,1352,818,352,812
1453,359,1409,780,285,854
1550,278,1399,703,194,823
1616,292,1344,651,194,911
1544,371,1333,696,309,991
1532,352,1429,748,398,997
1599,350,1518,758,381,1019
1616,330,1578,757,447,1117
1499,343,1673,726,567,1225
1342,342,1725,612,555,1280
1258,350,1686,460,423,1247
1255,359,1626,336,268,1142
1304,354,1587,231,117,1041
1342,380,1539,127,-11,998
1367,407,1447,41,-109,983
1410,428,1352,5,-146,984
1428,475,1278,6,-123,1029
1427,526,1210,17,-99,1097
1440,549,1150,55,-74,1149
1429,566,1122,113,-15,1182
1397,578,1118,157,48,1203
1387,580,1116,186,79,1214
1403,587,1123,207,78,1218
1425,590,1137,215,65,1226
1428,592,1131,214,37,1224
1452,608,1089,216,-8,1219
1511,646,1048,238,-51,1231
1569,699,1073,295,-79,1259
1615,796,1181,357,-111,1280
1649,968,1303,381,-162,1283
1664,1244,1387,376,-212,1241
1690,1491,1322,384,-278,1140
1802,1608,1176,513,-314,1020
1953,1615,1134,773,-253,943
2018,1513,1140,1065,-121,950
2055,1308,1208,1315,99,1041
1992,1093,1370,1498,363,1176
1861,945,1530,1576,553,1285
1748,871,1647,1526,597,1317
1727,858,1684,1402,478,1261
1795,864,1628,1275,293,1163
1897,858,1516,1203,138,1100
1967,857,1424,1198,54,1114
1992,855,1342,1243,58,1192
2008,855,1266,1328,151,1312
2044,847,1204,1447,312,1461
2088,830,1213,1581,533,1642
2077,807,1326,1706,769,1843
1969,794,1536,1766,940,2013
1800,758,1779,1711,973,2097
1700,712,1924,1545,866,2094
1649,712,1940,1337,725,2062
1579,708,1940,1152,640,2019
1484,686,1939,969,571,1968
1399,664,1873,784,493,1904
1378,635,1801,620,422,1818
1399,611,1735,478,367,1740
1389,599,1665,341,334,1691
1333,602,1564,203,303,1651
1262,630,1470,82,254,1594
1216,653,1369,-16,201,1513
1204,668,1266,-93,155,1425
1217,657,1160,-140,127,1356
1199,638,1096,-152,140,1303
1163,614,1094,-156,144,1246
1171,577,1106,-175,116,1175
1185,530,1083,-196,95,1108
1171,471,1073,-208,85,1048
1095,424,1106,-230,48,951
1068,395,1175,-295,-113,780
1144,373,1233,-404,-391,566
1260,328,1238,-539,-683,374
1378,361,1168,-656,-894,252
1528,318,1052,-698,-929,191
1557,308,1082,-620,-940,334
1554,287,1073,-543,-864,458
1608,257,1178,-404,-592,426
1709,172,1322,-316,-283,477
1724,171,1394,-278,22,655
1593,196,1465,-260,283,771
1475,183,1547,-293,396,739
1479,188,1568,-386,338,625
1565,198,1542,-476,224,508
1657,191,1526,-528,117,424
1725,179,1506,-558,24,386
1796,190,1505,-577,-52,391
1869,241,1513,-563,-82,445
1877,347,1578,-497,-30,498
1849,489,1737,-433,51,515
1839,612,1843,-419,105,487
1858,667,1874,-417,116,405
1864,636,1904,-406,109,288
1834,520,1934,-424,105,162
1832,332,1922,-494,33,36
1871,94,1864,-579,-86,-79
1888,-142,1886,-648,-162,-157
1855,-303,1922,-784,-260,-154
1800,-376,1848,-995,-389,-108
1706,-371,1733,-1183,-490,-60
1591,-297,1578,-1335,-627,-45
1591,-229,1371,-1426,-819,-60
1694,-166,1174,-1397,-932,-33
1814,-99,1041,-1252,-858,82
1863,-44,990,-1043,-580,289
1787,-9,990,-800,-248,533
1679,40,1059,-566,29,734
1576,58,1211,-403,238,822
1554,51,1354,-350,242,808
1620,22,1409,-371,118,763
1640,-12,1409,-393,28,750
1580,-45,1424,-384,-5,770
1450,-71,1474,-375,-34,788
1359,-110,1510,-392,-95,771
1295,-140,1522,-422,-142,727
1234,-175,1504,-465,-171,674
1177,-186,1446,-518,-205,622
1131,-186,1352,-568,-254,557
1117,-170,1240,-596,-304,484
1131,-165,1135,-596,-364,414
1156,-176,1063,-574,-428,351
1174,-210,1045,-542,-480,302
1193,-242,1050,-521,-524,288
1180,-258,1002,-493,-512,309
1157,-278,948,-428,-450,331
1138,-299,908,-331,-366,343
1161,-317,888,-215,-265,356
1164,-344,899,-93,-152,383
1156,-358,935,17,-50,414
1114,-364,1007,101,15,430
1049,-374,1072,144,22,412
1023,-397,1131,153,-2,354
1014,-417,1181,130,-21,288
994,-423,1214,63,-56,214
1014,-475,1228,45,-133,150
1068,-489,1247,6,-191,77
1091,-504,1216,-65,-169,36
1119,-513,1169,-82,-171,18
1171,-510,1163,-82,-144,-10
1235,-562,1189,-88,-103,-42
1271,-572,1211,-82,-106,-37
1293,-584,1243,-34,-138,-16
1323,-599,1312,-28,-153,-82
1411,-634,1371,-52,-228,-145
1504,-665,1362,-84,-284,-157
1541,-689,1335,-97,-263,-143
1616,-740,1270,-67,-185,-112
1695,-766,1253,14,-1,-32
1685,-755,1255,78,190,87
1676,-766,1229,119,308,175
1686,-769,1232,159,388,222
1653,-740,1268,165,425,247
1631,-709,1271,115,357,240
1635,-663,1274,49,214,194
1597,-576,1317,-29,47,107
1546,-469,1349,-143,-199,-29
1606,-374,1290,-249,-484,-191
1604,-289,1199,-296,-646,-329
1500,-229,1181,-284,-750,-469
1491,-256,1208,-244,-881,-651
1573,-347,1261,-205,-935,-849
1615,-420,1355,-206,-927,-1054
1806,-546,1376,-252,-982,-1277
2176,-722,1347,-272,-909,-1427
2479,-802,1335,-287,-630,-1398
2616,-815,1219,-348,-365,-1222
2738,-819,1059,-377,-265,-979
2710,-782,921,-342,-250,-703
2632,-707,865,-232,-342,-451
2523,-679,888,-116,-476,-227
2315,-578,960,-22,-575,2
2087,-490,1016,71,-572,194
1976,-443,1078,207,-455,350
1838,-369,1197,327,-160,486
1651,-315,1290,403,174,585
1539,-239,1376,455,407,595
1444,-389,1561,462,586,513
1411,-395,1756,378,567,312
1548,-423,1707,120,348,135
1732,-435,1539,-63,165,-51
1815,-406,1424,-135,119,-182
1834,-411,1293,-213,107,-211
1913,-401,1153,-254,61,-189
1945,-380,1059,-251,85,-134
1902,-359,991,-238,159,-49
1815,-331,914,-227,232,38
1680,-285,885,-192,307,101
1571,-257,886,-140,341,125
1496,-244,907,-93,358,131
1431,-234,916,-64,387,125
1383,-224,928,-45,406,101
1366,-222,957,-36,401,56
1366,-226,983,-53,389,0
1363,-233,971,-80,373,-40
1348,-208,956,-97,370,-73
1326,-192,971,-117,383,-106
1284,-167,939,-138,385,-119
1248,-158,921,-142,405,-140
1200,-147,904,-151,427,-183
1180,-101,836,-150,421,-224
1163,-58,780,-113,451,-252
1119,-28,739,-61,523,-266
1093,6,664,1,609,-275
1088,38,606,102,739,-316
1077,49,647,237,868,-373
1044,29,872,363,840,-427
1074,-64,1125,359,605,-578
1182,-101,1287,221,311,-865
1345,-95,1304,35,63,-1159
1607,-97,1214,-117,-86,-1316
1786,-51,1096,-182,-35,-1323
1886,2,1015,-194,135,-1217
1995,-29,889,-89,356,-1076
2173,-62,896,218,646,-982
2354,-131,987,529,1007,-842
2496,-219,1225,814,1348,-661
2564,-276,1548,986,1493,-492
2586,-302,1820,990,1428,-374
2564,-235,2029,861,1241,-354
2509,-112,2109,608,948,-388
2458,42,1994,350,599,-450
2380,189,1771,234,355,-528
2324,220,1663,302,257,-592
2238,161,1653,439,261,-622
2152,-4,1786,576,288,-656
2138,-247,2047,634,254,-725
2194,-466,2236,512,117,-792
2195,-611,2254,224,-74,-817
2141,-677,2146,-104,-332,-823
2076,-669,1919,-398,-635,-797
2024,-628,1604,-602,-856,-714
1885,-567,1369,-668,-926,-586
1735,-531,1248,-637,-959,-455
1695,-509,1166,-582,-1001,-317
1686,-474,1093,-509,-938,-145
1642,-421,1077,-414,-789,55
1630,-408,1100,-295,-601,255
1555,-393,1195,-164,-362,457
1434,-423,1281,-45,-175,627
1336,-686,1347,151,-22,432
1545,-159,1806,495,141,56
1262,-495,1811,-17,163,769
1074,-575,1859,-6,107,794
1109,-506,2003,64,-104,458
1144,-481,2110,-45,-129,208
1201,-430,2091,-239,-87,115
1266,-399,1972,-406,-96,150
1292,-343,1852,-492,-13,176
1300,-313,1772,-580,101,159
1354,-272,1671,-673,131,117
1399,-192,1535,-734,100,76
1399,-134,1422,-825,56,53
1396,-105,1255,-944,-16,45
1439,-78,1054,-906,-57,-25
1514,-52,979,-775,10,-119
1592,-56,941,-666,94,-127
1644,-57,897,-571,173,-58
1656,-56,858,-459,257,44
1621,-45,836,-338,327,143
1544,-38,820,-233,337,217
1490,-42,817,-141,272,258
1449,-51,835,-54,156,268
1416,-68,857,15,24,259
1379,-83,866,64,-109,237
1371,-98,877,101,-230,204
1356,-109,889,133,-321,177
1317,-111,889,153,-390,154
1281,-108,880,172,-454,117
1269,-118,869,211,-503,75
1268,-127,851,278,-520,45
1278,-126,889,348,-516,27
1307,-145,919,390,-523,24
1336,-151,943,432,-499,15
1349,-146,950,488,-405,23
1424,-171,1070,547,-294,56
1397,-206,1093,522,-268,184
1482,-214,1094,565,-259,159
1638,-258,1167,626,-187,143
1696,-301,1282,647,-111,190
1717,-322,1368,612,-145,272
1711,-367,1434,562,-246,309
1748,-404,1507,528,-358,261
1793,-438,1598,471,-454,208
1803,-464,1665,394,-555,187
1795,-500,1672,321,-670,194
1850,-543,1644,310,-778,228
1956,-585,1635,405,-817,299
2082,-646,1684,606,-780,442
2159,-757,1839,887,-686,650
2150,-869,2238,1201,-465,830
1757,-1014,2890,1352,-165,1056
1376,-1073,3460,1117,-12,1037
1230,-1022,3707,569,-20,803
1119,-943,3595,-130,149,485
1119,-806,3018,-813,244,100
1470,-638,2359,-1183,149,-354
1955,-545,1958,-1323,180,-635
2257,-509,1543,-1420,384,-634
2406,-485,1196,-1355,519,-479
2601,-447,889,-1199,540,-259
2653,-385,626,-1000,666,14
2497,-283,458,-801,782,340
2223,-195,340,-624,764,655
1997,-111,382,-443,657,871
1819,-68,523,-264,529,992
1642,-71,739,-92,424,994
1563,-103,996,9,252,877
1662,-147,1140,20,34,718
1817,-186,1213,27,-10,603
1909,-208,1294,51,110,578
1945,-205,1353,56,212,608
1970,-213,1357,43,272,623
1999,-239,1343,43,371,622
2048,-281,1403,90,480,613
2076,-321,1512,79,525,615
2072,-350,1568,-6,503,612
2045,-371,1621,-126,447,592
1977,-364,1606,-293,363,576
1868,-313,1504,-457,271,553
1769,-261,1397,-570,183,514
1688,-212,1274,-635,118,478
1621,-165,1162,-667,88,454
1574,-136,1067,-665,89,442
1507,-116,991,-636,122,445
1438,-97,929,-600,167,458
1376,-90,864,-560,212,469
1305,-74,809,-519,264,477
1234,-63,760,-479,312,471
1168,-56,728,-440,337,454
1108,-52,688,-411,340,427
1058,-47,639,-380,331,377
1007,-32,610,-344,330,321
956,-14,579,-302,332,251
930,5,520,-251,350,166
907,-9,447,-152,409,87
881,83,447,10,461,33
793,97,424,51,522,98
713,99,365,106,575,117
647,153,372,205,595,19
615,160,417,301,543,-148
657,145,507,398,474,-318
691,151,587,447,458,-437
744,148,673,457,472,-538
844,119,817,535,481,-643
968,77,1040,668,519,-780
1082,9,1313,752,598,-910
1079,11,1534,675,664,-927
1022,38,1558,483,656,-1009
1071,112,1503,346,575,-1168
1137,180,1413,287,587,-1330
1224,246,1328,291,656,-1465
1396,291,1314,410,696,-1561
1568,324,1378,619,779,-1598
1636,384,1439,823,921,-1542
1653,437,1568,1039,1067,-1442
1682,432,1909,1235,1182,-1348
1545,405,2338,1312,1298,-1321
1204,386,2741,1231,1333,-1499
802,392,3054,914,1117,-1948
597,438,3141,386,467,-2596
799,369,2838,-206,-427,-3244
1274,294,2474,-529,-1089,-3698
1648,212,2267,-626,-1251,-3894
1770,93,2125,-663,-1138,-3852
1896,11,1959,-654,-1069,-3667
2042,-89,1820,-599,-929,-3413
2178,-194,1775,-496,-665,-3108
2193,-284,1900,-374,-397,-2792
2151,-291,2006,-353,-329,-2520
2150,-259,1965,-427,-359,-2331
2159,-203,1898,-484,-335,-2198
2179,-119,1807,-512,-271,-2042
2196,6,1639,-493,-189,-1819
2166,97,1471,-375,-29,-1584
2123,146,1420,-168,175,-1371
2095,156,1438,42,393,-1167
2037,130,1546,280,632,-1005
1967,70,1780,446,771,-930
1934,-12,2010,467,705,-929
1950,-58,2160,342,504,-952
1968,-80,2172,126,304,-984
2012,-98,2057,-84,165,-998
2031,-82,1876,-227,96,-956
1977,-35,1701,-308,67,-867
1916,-3,1545,-332,25,-774
1909,8,1422,-302,-19,-695
1892,16,1333,-235,-7,-603
1852,22,1301,-145,31,-510
1843,-9,1299,-73,19,-426
1863,-48,1284,-28,25,-340
1882,-85,1271,8,43,-236
1889,-90,1247,47,77,-120
1880,-89,1218,92,120,4
1868,-96,1204,151,159,138
1854,-83,1203,217,198,274
1823,-64,1172,269,227,409
1799,-41,1112,349,250,532
1767,-10,1055,462,303,657
1692,24,1053,597,380,763
1612,77,1067,686,408,837
1575,114,1062,721,357,900
1592,145,1056,730,296,970
1588,180,1017,728,253,1073
1519,214,968,769,212,1128
1604,245,944,858,171,1095
1688,250,929,956,205,1154
1699,282,948,1065,289,1259
1639,300,1025,1180,370,1379
1562,301,1172,1286,430,1517
1507,251,1249,1312,483,1654
1420,233,1303,1367,599,1696
1243,211,1477,1380,698,1683
1075,159,1689,1232,616,1585
1057,110,1803,960,300,1348
1256,60,1773,680,-94,1071
1431,66,1682,446,-346,903
1484,97,1590,277,-474,852
1499,126,1501,158,-628,826
1544,161,1372,84,-789,797
1617,201,1256,63,-861,810
1676,256,1147,95,-856,867
1686,321,1055,181,-796,946
1709,372,1001,305,-701,1024
1722,413,968,431,-577,1101
1762,457,956,548,-444,1186
1889,541,1084,658,-293,1284
1970,701,1243,706,-125,1397
1907,930,1236,697,25,1484
1837,1153,1139,746,107,1482
1896,1313,1083,915,106,1404
2028,1417,1105,1143,121,1345
2190,1469,1184,1445,186,1338
2328,1406,1307,1775,302,1369
2443,1193,1495,2071,463,1460
2449,871,1786,2248,668,1640
2237,536,2102,2224,850,1858
1937,289,2305,1989,829,1996
1651,185,2391,1606,633,2002
1432,223,2327,1151,317,1910
1387,302,2051,738,-37,1763
1466,413,1749,510,-248,1642
1553,544,1538,475,-279,1608
1635,660,1410,538,-205,1659
1698,757,1323,651,-70,1767
1728,858,1289,794,127,1894
1712,939,1298,939,368,2016
1644,999,1365,1067,600,2106
1557,1019,1454,1143,739,2129
1526,988,1541,1156,789,2088
1521,943,1620,1117,806,2014
1495,900,1656,1032,798,1933
1467,866,1620,923,756,1857
1444,831,1571,827,710,1792
1424,795,1537,751,681,1732
1397,767,1496,682,665,1682
1361,743,1465,620,646,1636
1316,731,1432,563,630,1591
1254,721,1395,504,622,1536
1186,728,1356,441,592,1464
1106,735,1314,381,533,1364
1044,736,1268,316,430,1226
1009,737,1202,251,298,1072
985,725,1125,209,172,921
985,698,1059,187,58,782
994,672,1022,187,-17,674
985,641,1007,198,-45,592
997,633,966,208,-27,521
994,610,945,232,61,473
963,595,958,270,149,416
961,596,956,292,216,352
953,544,944,344,300,281
946,608,1040,452,314,205
870,606,1104,368,228,225
828,597,1072,284,64,139
864,621,1082,283,-104,-46
944,622,1205,257,-239,-223
1026,600,1260,154,-376,-330
1130,587,1306,122,-461,-414
1130,610,1388,112,-439,-481
1043,623,1457,81,-356,-557
977,637,1506,35,-294,-661
987,676,1546,-37,-250,-772
1006,677,1534,-110,-151,-879
1051,671,1509,-158,-31,-1007
1129,620,1493,-167,64,-1131
1253,554,1566,-146,129,-1225
1397,545,1735,-163,124,-1285
1475,601,1842,-259,63,-1345
1513,658,1880,-359,-3,-1448
1484,704,1927,-439,-105,-1572
1445,747,1938,-538,-284,-1718
1481,782,1908,-662,-510,-1887
1570,854,1813,-770,-710,-2048
1668,927,1692,-814,-815,-2170
1808,951,1563,-768,-836,-2220
1941,917,1476,-619,-760,-2180
2023,812,1424,-428,-598,-2045
2074,673,1466,-220,-372,-1838
2050,498,1633,-45,-84,-1583
1840,349,1856,39,158,-1336
1638,243,1998,23,219,-1176
1494,217,1999,-83,150,-1114
1388,221,1907,-196,-2,-1138
1423,232,1770,-254,-200,-1185
1533,246,1647,-242,-310,-1173
1624,258,1541,-176,-298,-1075
1664,272,1467,-75,-211,-925
1656,282,1401,37,-99,-752
1629,280,1341,146,2,-583
1562,283,1291,250,77,-435
1497,274,1268,340,127,-324
1407,279,1295,404,158,-243
1301,287,1362,428,148,-197
1244,289,1417,419,97,-183
1227,313,1419,409,59,-170
1205,339,1431,421,77,-147
1149,373,1424,444,118,-112
1099,402,1397,487,166,-94
1091,417,1383,543,201,-105
1144,420,1347,606,224,-127
1236,406,1327,687,254,-133
1341,379,1331,787,300,-108
1439,358,1370,880,343,-55
1518,337,1415,953,390,16
1550,313,1466,1007,438,102
1555,303,1523,1040,455,191
1591,297,1579,1059,465,277
1623,289,1644,1071,503,371
1619,296,1678,1070,546,470
1619,309,1722,1057,566,556
1633,317,1753,1026,566,624
1649,325,1752,969,549,678
1694,334,1730,902,530,726
1741,327,1720,834,523,779
1757,327,1699,749,513,844
1758,333,1638,649,484,910
1777,328,1549,575,438,967
1798,357,1485,527,397,1022
1810,380,1430,479,351,1092
1823,414,1358,439,307,1183
1811,456,1272,420,287,1279
1810,491,1213,440,290,1379
1800,520,1181,474,302,1486
1760,538,1163,504,317,1591
1723,570,1158,530,329,1678
1705,626,1163,538,323,1743
1708,698,1155,537,301,1790
1718,793,1146,550,275,1827
1711,908,1139,586,262,1862
1702,1022,1127,654,269,1899
1695,1095,1125,755,312,1935
1659,1115,1149,881,413,1971
1589,1106,1155,995,527,2013
1504,1085,1140,1092,626,2055
1433,1032,1136,1192,733,2085
1363,971,1182,1294,866,2102
1297,914,1247,1366,1001,2113
1241,862,1312,1400,1111,2112
1171,824,1386,1410,1192,2089
1098,798,1470,1397,1231,2028
1049,776,1564,1342,1219,1924
1020,760,1635,1240,1167,1782
1047,770,1675,1110,1082,1606
1128,768,1706,982,972,1421
1259,781,1701,839,831,1269
1405,836,1614,702,761,1107
1550,853,1535,638,741,1008
1648,869,1506,618,761,978
1696,878,1460,611,792,971
1734,862,1417,615,806,964
1765,828,1391,614,797,954
1778,790,1345,597,765,948
1783,755,1290,569,709,950
1777,732,1176,538,631,965
1758,722,1048,536,561,994
1759,718,946,576,501,1035
1755,729,858,652,471,1109
1725,757,799,757,491,1201
1673,796,783,880,541,1288
1638,818,773,995,581,1353
1630,841,737,1098,605,1394
1643,877,687,1216,634,1431
1668,896,692,1362,683,1479
1715,920,693,1482,737,1547
1755,948,757,1602,871,1625
1770,961,842,1704,970,1714
1748,979,891,1770,1051,1809
1676,998,912,1832,1149,1894
1586,1002,1006,1898,1217,1937
1528,992,1107,1923,1188,1929
1489,975,1182,1894,1101,1878
1466,956,1214,1838,1010,1804
1459,935,1229,1781,916,1724
1474,906,1235,1737,833,1651
1488,885,1247,1699,772,1593
1505,862,1249,1664,725,1546
1535,841,1244,1627,685,1509
1541,817,1240,1599,657,1486
1525,801,1233,1578,631,1466
1512,783,1223,1554,594,1445
1516,771,1228,1538,563,1425
1542,761,1272,1528,560,1412
1552,744,1348,1496,577,1412
1537,727,1388,1427,584,1414
1519,739,1356,1357,586,1405
1536,748,1334,1310,590,1386
1553,737,1342,1280,597,1368
1559,728,1375,1241,581,1341
1606,729,1404,1170,520,1301
1664,724,1407,1086,451,1261
1677,710,1394,1007,400,1236
1642,703,1380,930,351,1221
1601,693,1362,862,289,1196
1600,676,1353,804,238,1166
1649,640,1364,746,219,1148
1664,618,1372,675,238,1158
1659,610,1333,600,265,1187
1652,601,1331,540,307,1213
1614,606,1296,479,353,1242
1586,641,1225,434,370,1264
1596,670,1185,425,372,1279
1618,694,1185,437,390,1297
1646,696,1264,448,437,1328
1657,699,1351,432,522,1383
1645,724,1389,396,625,1457
1592,749,1383,374,722,1525
1563,763,1360,379,812,1582
1519,801,1342,418,925,1642
1470,834,1376,482,996,1683
1448,870,1489,551,1009,1680
1502,897,1653,598,963,1646
1567,919,1822,643,898,1618
1570,992,2003,675,860,1603
1464,1063,2207,635,890,1551
1296,1062,2342,505,869,1383
1191,977,2339,318,664,1090
1274,731,2289,110,385,747
1529,449,2197,-85,66,501
1767,234,2140,-221,-151,421
1861,87,2132,-349,-255,474
1950,7,2078,-483,-397,629
2008,22,2055,-569,-481,877
1915,90,2038,-604,-423,1159
1716,152,2013,-594,-302,1429
1523,226,1978,-563,-187,1665
1367,315,1948,-533,-68,1829
1225,390,1930,-509,60,1908
1155,444,1912,-502,137,1912
1149,477,1870,-495,169,1869
1218,502,1871,-489,165,1804
1316,545,1906,-506,102,1737
1444,562,1932,-538,-18,1686
1520,566,1906,-561,-90,1689
1478,571,1863,-536,-84,1748
1399,542,1904,-451,-28,1812
1324,485,2016,-380,24,1863
1211,456,2100,-375,51,1886
1095,398,2147,-404,49,1851
1092,354,2180,-441,18,1778
1007,318,2182,-508,90,1724
870,302,2174,-597,90,1675
788,320,2145,-697,-15,1538
778,331,2085,-845,-214,1370
877,333,1884,-980,-376,1183
981,368,1653,-1015,-438,1067
1009,384,1481,-974,-412,1043
1011,362,1404,-884,-368,1046
1046,297,1387,-778,-338,1029
1101,226,1422,-684,-321,1013
1126,182,1449,-615,-308,1024
1118,176,1414,-563,-298,1076
1122,151,1387,-491,-273,1137
1118,124,1396,-396,-204,1190
1091,105,1390,-318,-138,1249
1075,98,1378,-253,-87,1304
1067,70,1358,-177,-12,1363
1002,62,1350,-93,76,1426
936,49,1348,-16,116,1463
1013,7,1359,72,139,1476
1146,-80,1467,198,298,1527
1126,-148,1624,282,571,1649
993,-192,1700,269,778,1771
850,-200,1696,209,850,1818
766,-204,1650,140,828,1778
682,-196,1557,60,775,1690
586,-181,1472,-10,691,1577
505,-157,1379,-64,579,1440
420,-132,1287,-111,467,1284
352,-112,1185,-146,325,1091
299,-123,1102,-156,179,908
265,-122,1003,-177,40,766
237,-137,944,-151,-58,610
200,-152,952,-97,-167,455
242,-201,975,-56,-301,315
372,-249,952,0,-381,205
531,-284,922,106,-364,172
683,-347,972,258,-243,216
757,-422,1080,417,-64,301
791,-489,1233,539,59,387
789,-529,1399,582,103,443
748,-499,1546,526,69,447
692,-407,1644,403,-48,352
648,-266,1696,248,-235,133
629,-114,1615,63,-469,-148
698,14,1405,-31,-745,-424
941,61,1260,55,-895,-684
1160,27,1222,278,-778,-825
1363,-114,1295,551,-525,-826
1591,-302,1450,855,-249,-705
1736,-442,1725,1100,88,-485
1651,-507,1939,1208,397,-233
1486,-495,2010,1193,495,-80
1357,-419,1945,1101,413,-46
1274,-339,1837,1038,261,-116
1226,-289,1776,1019,97,-221
1130,-205,1785,1008,-55,-331
1031,-124,1814,973,-270,-478
1054,-86,1832,930,-489,-660
1061,-27,1908,889,-630,-831
1104,-42,2049,823,-729,-981
1104,-54,2154,705,-782,-1102
1053,-6,2099,530,-843,-1214
1092,43,1894,410,-919,-1338
1299,50,1698,435,-882,-1416
1540,23,1613,583,-652,-1364
1647,-2,1615,766,-305,-1176
1579,8,1640,918,14,-938
1417,32,1635,1007,177,-775
1327,71,1586,1052,218,-730
1238,135,1537,1107,221,-724
1169,210,1541,1149,161,-769
1138,257,1608,1146,60,-857
1112,288,1733,1090,-44,-986
1096,294,1879,989,-152,-1145
1062,313,1997,784,-262,-1333
1070,320,1971,560,-417,-1517
1057,396,1817,374,-527,-1700
1103,451,1627,258,-648,-1865
1243,492,1459,243,-735,-1999
1359,501,1430,316,-664,-2072
1447,492,1520,398,-550,-2088
1497,480,1637,442,-429,-2073
1467,501,1681,425,-298,-2050
1439,525,1668,368,-251,-2055
1446,550,1598,302,-194,-2099
1420,542,1520,286,-177,-2120
1481,565,1492,317,-351,-2174
1657,554,1427,246,-370,-2274
1682,541,1437,271,-330,-2244
1750,508,1538,311,-367,-2189
1860,456,1628,273,-341,-2131
1811,506,1616,219,-287,-2006
1939,521,1432,219,-310,-1888
2356,471,1255,404,-181,-1677
2575,448,1237,688,279,-1286
2523,421,1306,943,731,-822
2358,351,1496,1137,932,-460
2012,226,1839,1222,873,-268
1548,274,2120,1109,665,-299
1225,80,2373,844,307,-521
1016,127,2632,620,-185,-759
975,135,2585,267,-664,-950
1101,172,2445,12,-827,-1088
1217,218,2374,-72,-834,-1140
1876,186,1969,-112,-843,-1128
2362,51,1575,63,-75,-896
2301,70,1990,382,550,-562
2407,62,2172,389,389,-292
2217,57,2384,233,303,-154
2106,117,2472,-32,-108,-167
2253,202,2307,-286,-406,-219
2119,248,2408,-366,-338,-210
1933,264,2441,-422,-384,-132
1763,237,2525,-506,-337,-79
1545,260,2459,-596,-275,-131
1332,275,2089,-771,-259,-222
1263,205,1671,-893,-340,-308
1275,171,1435,-861,-501,-356
1288,125,1377,-786,-562,-360
1228,102,1323,-772,-521,-289
1173,123,1348,-760,-477,-184
1251,121,1439,-772,-324,-58
1128,186,1462,-783,-29,118
1044,228,1432,-804,199,283
942,283,1401,-788,419,409
737,382,1330,-808,574,528
492,435,1243,-852,600,644
361,499,1233,-810,482,706
566,514,1437,-655,389,670
1037,507,1713,-493,481,617
1382,442,2080,-408,600,677
1509,422,2222,-516,395,820
1622,470,2195,-687,298,925
1593,443,2198,-749,426,1038
1526,511,1967,-728,591,1162
1371,655,1717,-561,1065,1330
995,672,1773,-286,1583,1597
708,730,1846,-145,1955,1826
311,665,1995,-147,2085,1680
-168,603,2318,-311,1435,1126
283,672,2188,-827,-53,390
943,797,1497,-1156,-512,3
889,511,1456,-1195,-801,-73
1183,597,1000,-1094,-1438,-117
1585,420,823,-929,-1352,-63
1697,383,668,-680,-988,131
1659,504,818,-424,-642,365
1769,536,1325,-252,-632,632
1626,423,1515,-363,-741,928
1439,534,1613,-374,-477,843
1285,666,1561,-401,-132,921
1039,707,1266,-410,139,1310
699,752,956,-263,401,1701
430,768,814,-48,549,1709
432,790,845,116,462,1417
674,780,931,262,171,1173
801,753,1063,365,-50,1065
759,750,1199,356,-272,1033
736,749,1309,278,-557,995
688,646,1446,317,-590,787
504,636,1652,400,-388,452
462,641,1669,329,-420,92
737,634,1457,136,-642,-202
987,663,1198,20,-698,-397
1128,676,1088,69,-652,-540
1270,580,1132,197,-676,-673
1401,963,1213,201,-514,-743
1360,622,1350,346,-465,-765
1237,586,1578,415,-892,-512
1093,771,1617,282,-997,-761
951,552,1911,144,-806,-1177
1018,442,2098,-67,-1197,-1474
1357,597,1863,-450,-1590,-1611
1754,731,1590,-667,-1560,-1506
2088,790,1520,-528,-1293,-1266
2815,782,1477,-142,-962,-871
3361,736,1471,315,-202,-220
3229,657,1652,794,684,673
2433,660,1896,1016,1204,1427
1603,595,2002,931,1139,1663
1055,612,2047,786,721,1333
678,597,2041,559,237,766
591,514,2028,351,-253,148
653,445,1970,170,-711,-425
920,422,1951,61,-1092,-929
1283,347,1836,-146,-1342,-1290
1517,298,1645,-207,-1321,-1550
1663,292,1520,-155,-1291,-1572
1743,300,1454,-120,-1256,-1528
1834,282,1399,-141,-1235,-1450
1860,268,1307,-157,-1239,-1310
1772,329,1257,-145,-1225,-1181
1716,376,1213,-149,-1239,-1094
1778,378,1189,-144,-1219,-1001
1824,399,1155,-128,-1093,-836
1794,430,1111,-82,-896,-640
1670,421,1152,44,-665,-484
1567,385,1217,145,-471,-364
1535,362,1265,188,-298,-243
1518,358,1304,225,-134,-110
1475,358,1425,255,49,-18
1286,363,1588,219,164,20
1008,425,1697,74,45,-39
893,478,1691,-131,-239,-207
1073,479,1599,-324,-383,-431
1143,494,1520,-448,-308,-583
1188,536,1343,-577,-238,-696
1233,554,1174,-631,-219,-716
1260,550,1092,-649,-227,-694
1285,617,946,-641,-228,-720
1269,599,879,-589,-178,-747
1464,518,874,-581,-248,-772
1636,561,808,-553,-254,-676
1540,516,869,-478,-164,-518
1576,513,912,-416,-163,-435
1627,523,1011,-285,-53,-327
1654,523,1180,-160,169,-211
1729,541,1347,-70,298,-132
1801,554,1553,-55,283,-67
1606,507,1567,-170,225,-8
1436,538,1590,-234,73,-88
1526,483,1525,-334,-35,-286
1753,480,1486,-349,53,-502
1827,445,1439,-370,188,-498
1855,404,1400,-346,203,-383
1906,315,1361,-336,204,-293
1935,315,1389,-260,257,-237
1980,295,1434,-190,375,-168
1978,241,1554,-68,452,-82
1875,268,1684,-1,444,5
1771,289,1781,-52,435,89
1756,335,1881,-84,441,98
1741,476,1951,-120,475,62
1726,547,1999,-155,496,20
1738,656,2117,-154,471,-74
1750,692,2243,-176,451,-227
1784,635,2294,-254,393,-398
1849,443,2226,-347,320,-550
1914,204,2122,-472,290,-682
1906,-28,1942,-655,240,-687
1867,-139,1713,-836,165,-615
1831,-184,1497,-973,159,-528
1792,-215,1369,-1031,153,-391
1783,-191,1289,-1027,112,-196
1798,-147,1274,-967,121,48
1741,-106,1354,-866,187,308
1620,-28,1473,-778,250,529
1519,35,1559,-744,300,700
1411,124,1575,-753,329,838
1352,201,1532,-770,337,939
1326,253,1461,-759,361,1022
1284,291,1419,-699,388,1082
1315,299,1453,-612,381,1099
1385,276,1565,-529,367,1093
1372,241,1681,-490,376,1087
1310,230,1732,-502,363,1074
1282,233,1736,-533,326,1042
1299,230,1717,-523,343,1010
1296,208,1713,-486,428,1006
1252,182,1749,-453,503,1016
1200,168,1771,-462,515,1007
