ax,ay,az,gx,gy,gz
-1554,-1661,-420,-169,116,102
-1505,-1702,-468,-186,362,-422
-1243,-1687,-387,-208,972,-1072
-1205,-1822,-569,-199,1670,-1676
-1342,-1873,-692,-101,1535,-1857
-1369,-1800,-682,-6,1029,-1814
-1257,-1676,-557,105,601,-1551
-1161,-1573,-458,124,409,-1296
-1110,-1620,-477,51,291,-1191
-1036,-1692,-509,38,89,-1118
-799,-1666,-463,92,-45,-1071
-395,-1599,-382,87,4,-1053
-250,-1666,-406,-27,316,-1029
-417,-1850,-493,-185,590,-905
-578,-2005,-627,-274,529,-652
-682,-2129,-715,-239,246,-331
-643,-2169,-760,-158,-158,1
-509,-2135,-782,-54,-599,385
-468,-2018,-661,65,-977,781
-513,-1891,-542,102,-1186,1038
-578,-1858,-522,129,-1278,1250
-662,-1751,-465,191,-1372,1571
-658,-1647,-360,153,-1302,1706
-713,-1693,-377,60,-1008,1651
-878,-1787,-440,33,-745,1541
-989,-1764,-438,68,-579,1364
-1093,-1680,-378,96,-352,1062
-1152,-1519,-314,71,48,616
-1213,-1417,-214,10,745,14
-1465,-1391,-186,-127,1525,-730
-1810,-1386,-246,-280,2106,-1696
-1960,-1586,-493,-363,2397,-2579
-1723,-1757,-639,-357,1932,-2635
-1223,-1882,-633,-251,1242,-2466
-955,-2081,-686,-218,859,-2156
-922,-2203,-804,-157,441,-1611
-805,-2077,-759,32,-80,-1097
-600,-1870,-577,177,-392,-746
-383,-1718,-451,170,-484,-520
-284,-1693,-465,62,-512,-342
-306,-1722,-498,-34,-603,-131
-313,-1736,-489,-53,-761,141
-316,-1780,-488,-49,-907,486
-389,-1883,-479,-90,-1006,866
-493,-1960,-474,-108,-1127,1195
-589,-2006,-501,-57,-1223,1472
-690,-2128,-600,87,-1355,1793
-637,-1892,-551,329,-1601,2129
-664,-1690,-399,309,-1346,2093
-784,-1668,-326,134,-552,1647
-931,-1700,-378,6,186,1059
-1005,-1632,-403,-60,573,539
-1017,-1543,-449,-178,824,180
-1036,-1525,-517,-304,1023,-133
-1188,-1555,-528,-357,1137,-450
-1329,-1590,-514,-410,1252,-793
-1357,-1667,-504,-469,1334,-1068
-1345,-1768,-552,-488,1516,-1227
-1281,-1866,-660,-471,1540,-1234
-1138,-1923,-682,-397,1341,-1135
-899,-1922,-668,-279,1273,-1081
-808,-1915,-667,-172,1344,-1087
-836,-1923,-702,-129,1308,-1098
-824,-1898,-740,-81,1183,-1116
-759,-1820,-687,-24,929,-1068
-668,-1770,-649,-45,673,-952
-585,-1814,-697,-153,457,-792
-564,-1932,-776,-235,159,-598
-547,-2075,-889,-220,-251,-351
-558,-2154,-1015,-98,-861,-38
-539,-2174,-997,89,-1424,216
-296,-2168,-904,271,-1476,273
-47,-2087,-836,445,-1409,357
-32,-1929,-772,561,-1389,530
-195,-1857,-731,573,-1326,696
-360,-1799,-612,540,-1307,826
-357,-1618,-340,455,-959,846
-458,-1565,-452,269,-84,703
-661,-1641,-573,164,192,647
-763,-1594,-532,106,347,531
-725,-1509,-485,24,793,274
-678,-1508,-516,-100,1155,53
-845,-1599,-569,-264,1378,-76
-981,-1686,-597,-399,1692,-345
-1076,-1845,-734,-494,2003,-685
-1054,-2013,-795,-505,1849,-819
-947,-2064,-765,-455,1488,-727
-907,-2131,-832,-376,1135,-479
-908,-2066,-823,-224,690,-160
-909,-1884,-687,-62,488,22
-911,-1788,-606,-10,437,68
-905,-1783,-611,-26,330,57
-846,-1764,-616,-27,245,0
-803,-1749,-598,-46,190,-46
-775,-1764,-582,-115,106,-63
-753,-1786,-617,-193,70,-78
-729,-1805,-669,-241,49,-87
-653,-1819,-638,-253,130,-107
-598,-1811,-674,-282,260,-136
-589,-1800,-731,-279,295,-140
-546,-1823,-784,-253,321,-142
-501,-1822,-809,-235,298,-105
-507,-1817,-853,-221,232,-44
-549,-1843,-935,-195,155,-2
-504,-1832,-946,-149,133,-2
-422,-1785,-912,-101,144,19
-512,-1781,-925,-61,123,98
-616,-1837,-933,-29,78,112
-597,-1867,-914,37,-16,68
-691,-1890,-866,101,-149,30
-867,-1961,-951,130,-371,-81
-850,-1873,-901,141,-493,-274
-742,-1821,-812,117,-384,-428
-680,-1822,-795,86,-295,-439
-625,-1818,-754,70,-280,-341
-606,-1789,-701,72,-193,-231
-665,-1813,-691,47,-46,-164
-733,-1901,-750,37,-39,-104
-703,-1968,-817,46,-118,-39
-610,-1981,-821,129,-195,17
-500,-1903,-727,237,-219,92
-544,-1903,-704,248,-236,188
-608,-1904,-722,201,-303,262
-637,-1924,-746,210,-491,343
-682,-1889,-772,290,-912,505
-697,-1809,-708,396,-1470,738
-678,-1784,-658,417,-1874,913
-629,-1724,-620,418,-2173,1072
-697,-1820,-611,377,-2356,1230
-838,-1992,-740,594,-2574,1561
-629,-1475,-397,797,-2557,1667
-650,-1231,-53,450,-1102,1092
-1022,-1574,-270,-103,567,120
-1267,-1783,-524,-298,992,-637
-1096,-1664,-640,-269,934,-1062
-875,-1756,-634,-314,995,-1265
-832,-2023,-855,-333,979,-1414
-732,-2038,-857,-147,723,-1333
-648,-1970,-790,54,549,-1110
-600,-1954,-693,142,490,-841
-593,-1928,-621,144,350,-529
-591,-1882,-621,133,161,-255
-617,-1857,-607,95,69,-39
-662,-1829,-569,-1,242,40
-579,-1856,-577,-41,513,10
-567,-1871,-577,-4,691,-22
-643,-1954,-627,30,899,-91
-670,-1951,-596,79,958,-164
-684,-1889,-482,90,804,-183
-638,-1833,-488,27,545,-161
-550,-1759,-498,-68,266,-52
-534,-1740,-544,-137,52,76
-572,-1774,-624,-165,-82,164
-675,-1807,-660,-172,-198,228
-875,-1846,-741,-168,-290,212
-877,-1837,-789,-127,-273,70
-724,-1866,-776,-58,-177,-22
-780,-1900,-751,9,-116,-18
-1062,-1993,-737,34,-189,-132
-898,-1900,-719,113,-313,-459
-636,-1772,-628,152,-229,-635
-644,-1746,-541,56,-215,-590
-634,-1773,-550,-91,-270,-576
-543,-1801,-568,-167,-279,-567
-467,-1823,-566,-177,-312,-461
-356,-1772,-535,-176,-327,-294
-335,-1792,-523,-224,-279,-117
-249,-1854,-574,-316,-198,31
-99,-1877,-635,-341,-129,197
-62,-1922,-722,-323,-136,469
-228,-2023,-875,-314,-269,862
-470,-2070,-961,-260,-430,1297
-784,-2159,-947,-150,-550,1634
-974,-2143,-876,-5,-750,1793
-1027,-2034,-746,140,-1010,1798
-978,-1779,-478,239,-1093,1703
-953,-1556,-188,168,-494,1311
-1018,-1507,-269,-31,389,678
-1099,-1525,-396,-176,662,215
-1094,-1543,-485,-243,855,-138
-1228,-1620,-593,-270,1172,-452
-1609,-1887,-837,-272,1140,-980
-1439,-1909,-1086,-101,926,-1747
-1072,-1941,-1068,145,743,-1998
-959,-2061,-995,304,371,-1717
-820,-1976,-902,375,-63,-1306
-724,-1867,-729,380,-342,-925
-589,-1759,-587,379,-548,-637
-450,-1634,-536,354,-628,-378
-408,-1654,-543,293,-603,-127
-502,-1763,-490,223,-724,103
-616,-1812,-409,145,-795,74
-532,-1802,-406,86,-571,-164
-549,-1969,-562,24,-473,-348
-526,-1997,-644,47,-474,-443
-552,-2039,-672,61,-453,-382
-662,-2078,-663,48,-577,-185
-859,-2175,-694,52,-884,-27
-728,-2126,-764,167,-1329,-10
-531,-2007,-656,296,-1659,101
-500,-1920,-547,363,-1823,323
-542,-1820,-461,320,-1794,502
-574,-1759,-426,224,-1632,578
-612,-1741,-406,158,-1399,582
-616,-1705,-362,104,-1099,537
-622,-1675,-382,48,-729,465
-724,-1592,-358,3,-280,378
-887,-1647,-327,-70,224,197
-1009,-1755,-306,-131,567,-105
-1058,-1802,-362,-161,705,-524
-849,-1772,-402,-151,923,-946
-694,-1811,-503,-137,1171,-1197
-763,-1896,-619,-138,916,-1218
-806,-1999,-683,-130,435,-1143
-707,-2092,-721,-47,197,-1001
-544,-2065,-640,90,-61,-704
-473,-1951,-521,156,-319,-363
-411,-1847,-452,103,-341,-149
-325,-1976,-530,-5,-247,-29
-335,-2060,-622,9,-294,137
-392,-2060,-619,122,-400,352
-381,-2104,-577,218,-525,513
-406,-2074,-540,321,-743,618
-476,-1999,-505,429,-964,710
-654,-1959,-448,479,-1124,799
-854,-1959,-409,444,-1240,822
-885,-1897,-381,407,-1259,750
-875,-1823,-341,356,-1138,662
-883,-1777,-305,257,-919,571
-879,-1786,-268,165,-702,479
-859,-1763,-211,166,-385,298
-843,-1748,-292,52,36,96
-909,-1820,-362,6,223,64
-979,-1645,-158,77,161,20
-1111,-1574,-87,-15,249,-159
-1308,-1723,-156,-205,368,-394
-1454,-2173,-397,-202,83,-758
-1072,-1921,-452,-76,-284,-1060
-867,-1747,-390,-19,-403,-1105
-797,-1889,-354,-82,-691,-971
-495,-1964,-360,-148,-814,-748
-195,-1944,-392,-138,-785,-473
-230,-1975,-352,-77,-782,-181
-270,-2033,-314,-14,-784,-23
-407,-1942,-210,-9,-380,-109
-595,-1866,-235,-105,7,-192
-691,-2004,-377,-288,204,-186
-763,-2109,-481,-347,231,-81
-785,-2058,-482,-285,181,39
-629,-1943,-428,-140,58,207
-503,-1923,-431,-108,17,389
-479,-1984,-464,-69,26,492
-463,-1917,-429,53,0,549
-478,-1829,-274,191,-47,604
-556,-1732,-121,210,125,565
-809,-1797,-183,75,307,447
-986,-1830,-343,-30,127,236
-917,-1841,-415,-44,114,-56
-793,-1917,-418,-48,276,-238
-751,-1960,-458,-61,416,-292
-717,-2018,-505,-45,501,-301
-708,-2026,-544,-13,457,-274
-659,-2018,-493,32,224,-185
-626,-1967,-432,68,55,-83
-603,-1919,-375,71,-87,28
-623,-1897,-349,65,-272,123
-654,-1886,-310,110,-440,211
-685,-1903,-357,148,-605,286
-691,-1951,-406,178,-690,352
-680,-1971,-284,236,-667,400
-564,-1931,-203,224,-448,281
-578,-1953,-215,175,-80,23
-731,-1998,-312,221,214,-221
-924,-2036,-344,349,283,-392
-972,-2069,-306,445,341,-537
-798,-2023,-270,483,387,-587
-685,-1962,-188,476,326,-466
-657,-1876,-126,422,233,-297
-801,-1838,-151,328,264,-213
-889,-1825,-177,264,174,-240
-937,-1836,-253,253,81,-324
-997,-1858,-286,288,-92,-363
-822,-1903,-264,296,-235,-397
-770,-1910,-280,337,-268,-418
-676,-1934,-301,349,-230,-475
-543,-1940,-317,337,-76,-536
-501,-1947,-326,282,76,-511
-429,-1997,-288,201,207,-428
-421,-1965,-235,131,360,-331
-278,-1972,-273,92,123,-40
-223,-1902,-319,64,-79,369
-477,-1910,-267,55,142,603
-638,-1943,-270,95,332,608
-623,-1920,-280,228,476,506
-548,-1902,-181,369,497,427
-622,-1959,-118,350,418,374
-692,-2008,-54,279,220,362
-846,-1918,239,66,-257,365
-668,-2075,-242,-303,-689,258
-624,-2092,-124,-203,-673,276
-706,-2004,-240,-161,-583,255
-739,-1962,-211,-91,-141,161
-692,-1947,-137,-44,-1,154
-707,-1914,-178,-9,-2,181
-790,-1837,-134,0,107,115
-873,-1798,-168,-88,124,9
-902,-1856,-261,-196,88,-63
-857,-1891,-315,-249,-4,-89
-809,-1904,-304,-249,-237,-70
-788,-1920,-332,-238,-423,-45
-721,-1852,-277,-161,-497,4
-727,-1816,-274,-120,-571,76
-751,-1829,-273,-61,-668,116
-681,-1846,-220,24,-745,140
-556,-1817,-51,109,-538,141
-526,-1837,-138,93,-213,119
-621,-1946,-233,36,-133,114
-556,-2041,-219,-14,-162,105
-418,-2127,-289,-61,-272,179
-404,-2251,-342,-20,-376,366
-447,-2253,-247,120,-348,421
-409,-2021,-170,118,-201,274
-531,-1945,-65,-34,-86,40
-760,-1950,99,-213,-147,-137
-965,-1931,-117,-435,-2,-434
-952,-1908,-231,-469,205,-817
-799,-2042,-218,-327,420,-993
-754,-2028,-164,-68,520,-707
-847,-1924,-113,43,386,-199
-910,-1890,-96,-63,235,108
-882,-1898,-140,-121,163,156
-812,-1844,-154,-46,18,174
-734,-1792,-187,-41,-39,310
-668,-1822,-202,-65,-115,542
-621,-1801,-228,-64,-239,746
-627,-1777,-238,-93,-232,843
-660,-1773,-288,-161,-259,928
-774,-1807,-332,-231,-324,1028
-813,-1822,-336,-277,-369,1058
-754,-1830,-331,-282,-307,1005
-765,-1933,-332,-253,-178,934
-817,-2036,-316,-119,-90,877
-843,-1994,-208,45,-7,757
-834,-1951,-200,4,332,322
-656,-2080,-296,-24,658,-198
-471,-2098,-168,125,1093,-647
-545,-2086,-206,213,1756,-1133
-873,-2141,-445,337,2009,-1624
-1163,-2125,-487,609,1813,-1882
-1068,-1976,-240,774,1419,-1792
-882,-1984,-144,625,1133,-1560
-654,-2011,-251,413,783,-1158
-610,-1964,-280,295,446,-621
-711,-1907,-227,226,204,-178
-781,-1812,-184,117,-50,104
-703,-1758,-208,-14,-238,272
-594,-1739,-242,-95,-380,415
-396,-1601,-234,-160,-566,650
-385,-1642,-242,-268,-602,993
-591,-1907,-307,-354,-500,1363
-789,-2007,-370,-213,-515,1830
-900,-1890,-281,33,-663,2090
-973,-1863,-223,137,-645,1967
-1024,-1876,-213,134,-539,1634
-990,-1818,-218,140,-457,1239
-937,-1772,-195,184,-340,917
-875,-1760,-152,173,-100,574
-817,-1780,-92,82,361,75
-775,-1777,-124,-77,955,-569
-746,-1784,-205,-205,1324,-1136
-757,-1829,-153,-300,1409,-1631
-987,-2154,-216,-426,1523,-1884
-1056,-2131,-418,-272,1169,-1521
-1010,-1940,-363,-159,742,-1140
-946,-2005,-334,-208,595,-817
-899,-2065,-348,-168,322,-370
-921,-2021,-304,-59,31,-25
-881,-1959,-250,-34,-121,79
-778,-1941,-275,-32,-130,4
-701,-1882,-292,-10,-163,-32
-673,-1872,-319,-31,-209,37
-669,-1910,-343,-38,-250,116
-698,-1921,-375,6,-286,182
-684,-1917,-402,83,-537,331
-774,-1880,-414,117,-693,466
-817,-1883,-426,113,-755,539
-811,-1938,-414,118,-863,625
-811,-2041,-449,203,-965,795
-765,-1961,-414,430,-1090,1052
-758,-1887,-348,538,-1112,1173
-758,-1857,-294,519,-979,1139
-757,-1837,-259,503,-827,1029
-771,-1827,-225,511,-676,867
-703,-1778,-157,492,-473,589
-526,-1683,-76,397,102,-47
-287,-1701,43,157,1152,-1033
-716,-2088,-47,-33,2083,-1442
-1222,-1901,-117,60,1951,-1377
-1249,-1798,-210,50,1663,-1751
-1109,-1859,-198,48,1503,-1671
-967,-1810,-114,-9,1161,-1199
-941,-1813,-111,-129,861,-751
-883,-1887,-159,-214,700,-474
-783,-1915,-188,-233,584,-297
-693,-1962,-256,-227,425,-144
-557,-1990,-356,-197,205,39
-425,-1978,-438,-137,111,264
-499,-2024,-478,-68,21,497
-657,-2037,-487,-9,-290,744
-805,-2049,-456,72,-554,895
-865,-2014,-385,198,-676,934
-853,-1952,-327,285,-741,893
-828,-1920,-280,350,-778,868
-849,-1974,-273,404,-800,851
-835,-1661,-237,564,-850,869
-893,-1584,-158,468,-641,841
-942,-1775,-163,250,-302,659
-906,-1846,-149,138,-138,432
-747,-1698,1,85,304,-21
-635,-1566,119,-86,1156,-820
-780,-1650,49,-367,1979,-1758
-1114,-2012,-275,-497,2130,-2360
-1331,-2121,-465,-333,1333,-2014
-1097,-1894,-293,-76,414,-1652
-796,-1901,-244,-118,293,-1424
-763,-2048,-271,-134,192,-1017
-840,-2081,-282,-17,-31,-728
-799,-2058,-300,67,-209,-571
-630,-2082,-340,83,-324,-436
-520,-2066,-318,114,-410,-286
-492,-2018,-284,133,-482,-146
-419,-1949,-281,122,-707,50
-398,-1917,-298,63,-878,275
-376,-1926,-259,-40,-944,507
-385,-2110,-289,-111,-1016,858
-411,-2178,-339,75,-1248,1387
-438,-1964,-330,420,-1525,1891
-539,-1792,-244,602,-1545,2165
-645,-1787,-216,551,-1322,2118
-689,-1847,-253,441,-1002,1866
-748,-1849,-233,403,-677,1516
-818,-1796,-184,369,-362,1124
-863,-1746,-95,270,-33,695
-834,-1641,55,118,412,171
-702,-1408,244,-164,1185,-559
-756,-1591,110,-529,2102,-1468
-1024,-1906,-124,-662,2299,-2098
-1162,-2028,-283,-549,2048,-2410
-1085,-2078,-377,-364,1671,-2363
-1011,-2147,-434,-142,1137,-1911
-996,-2209,-449,-55,665,-1279
-1010,-2240,-430,20,240,-692
-915,-2141,-359,174,-136,-236
-733,-1955,-218,227,-385,54
-520,-1878,-188,117,-493,186
-477,-1903,-217,82,-697,430
-598,-1913,-246,62,-959,746
-697,-1946,-216,88,-1155,985
-676,-1908,-72,171,-1178,1144
-669,-1816,-21,112,-925,1027
-701,-1826,-95,45,-612,688
-737,-1883,-119,42,-459,410
-703,-1871,-127,42,-384,212
-634,-1828,-110,-7,-243,87
-606,-1856,-174,-82,-5,7
-620,-1869,-184,-101,60,16
-552,-1769,-54,-119,298,-52
-469,-1721,-40,-241,1042,-403
-504,-1787,-65,-325,1722,-824
-633,-1950,-195,-387,2191,-1179
-723,-2022,-400,-405,2163,-1415
-766,-1965,-493,-168,1903,-1572
-864,-2004,-551,-92,1569,-1634
-867,-2097,-499,-119,1067,-1514
-709,-2174,-443,-131,652,-1201
-602,-2141,-446,-127,346,-743
-590,-2147,-464,-79,62,-352
-599,-2170,-472,-15,-186,-66
-534,-2181,-457,39,-427,32
-474,-2141,-418,94,-676,93
-367,-2084,-422,160,-1144,409
-396,-1997,-276,166,-1470,868
-403,-1845,-134,90,-1305,1138
-497,-1850,-154,8,-900,1156
-692,-1911,-198,26,-818,1128
-801,-1919,-203,97,-935,1090
-789,-1866,-209,176,-1064,1064
-750,-1819,-205,205,-1138,1107
-640,-1665,-50,133,-844,1067
-606,-1631,-55,-57,56,671
-695,-1792,-133,-215,719,189
-706,-1845,-98,-254,1048,-294
-624,-1833,-139,-263,1694,-794
-623,-1924,-279,-291,2144,-1102
-629,-2074,-399,-261,2141,-1299
-625,-2022,-424,-29,1914,-1445
-789,-1993,-445,92,1666,-1559
-803,-2067,-448,115,1499,-1698
-672,-2173,-508,108,1339,-1710
-553,-2135,-469,107,942,-1333
-446,-2113,-451,83,602,-896
-368,-2125,-453,43,416,-507
-368,-2093,-430,66,178,-148
-414,-2030,-382,111,-119,123
-424,-1995,-325,109,-293,296
-427,-1982,-294,101,-586,490
-509,-1951,-302,65,-930,655
-552,-1983,-326,32,-1136,718
-623,-2079,-409,70,-1459,886
-679,-2077,-455,98,-1887,1144
-712,-2136,-435,78,-2246,1391
-673,-2141,-331,153,-2488,1623
-516,-1952,-50,296,-2330,1681
-485,-1729,66,300,-1313,1288
-568,-1718,-97,157,-310,640
-671,-1807,-166,74,21,144
-561,-1664,11,13,294,-234
-434,-1504,89,-233,1322,-779
-591,-1701,-194,-356,2056,-1276
-751,-1813,-371,-296,1755,-1504
-780,-1944,-444,-301,1307,-1639
-722,-2026,-440,-267,1051,-1627
-696,-2126,-423,-246,772,-1434
-609,-2128,-439,-215,430,-1129
-517,-2110,-451,-129,212,-823
-457,-2150,-471,-68,80,-471
-407,-2204,-506,-31,-138,-125
-384,-2200,-494,34,-352,131
-261,-2122,-452,146,-621,298
-271,-2075,-394,200,-953,542
-366,-2151,-376,193,-1209,884
-332,-2044,-291,162,-1449,1239
-321,-1997,-188,112,-1339,1362
-428,-2024,-174,82,-1078,1329
-603,-2059,-182,100,-960,1236
-714,-1978,-123,164,-818,1062
-712,-1828,-14,125,-445,760
-709,-1799,-42,-16,86,356
-766,-1826,-84,-105,441,37
-789,-1823,-118,-171,701,-212
-756,-1847,-205,-237,821,-360
-673,-1822,-207,-220,771,-417
-618,-1760,-142,-220,1040,-619
-710,-1825,-283,-260,1364,-992
-798,-1975,-448,-237,1265,-1181
-770,-2004,-510,-150,1039,-1039
-688,-1990,-471,-116,797,-790
-608,-2018,-474,-115,617,-629
-519,-2061,-480,-68,418,-484
-461,-2064,-459,-10,275,-370
-419,-2072,-460,21,231,-350
-379,-2069,-454,53,108,-300
-376,-2057,-434,82,-98,-143
-379,-2067,-393,112,-326,83
-343,-2035,-333,157,-626,370
-417,-2069,-376,124,-777,662
-441,-2126,-422,137,-1036,964
-480,-2154,-369,195,-1391,1263
-494,-2032,-239,256,-1641,1403
-540,-1961,-143,248,-1572,1355
-576,-1873,13,191,-1184,1137
-666,-1814,3,39,-434,672
-745,-1888,-105,-77,6,228
-756,-1910,-142,-97,114,-29
-729,-1901,-177,-132,187,-149
-705,-1917,-237,-184,185,-127
-722,-1954,-293,-191,88,-16
-736,-1945,-325,-149,-22,93
-721,-1866,-284,-83,-95,154
-707,-1792,-246,-59,19,103
-752,-1769,-222,-86,202,-66
-669,-1732,-136,-143,555,-335
-640,-1792,-236,-200,1199,-661
-715,-1953,-426,-196,1408,-870
-713,-2036,-499,-120,1244,-946
-611,-2034,-467,-26,1159,-975
-541,-2061,-495,-18,981,-926
-485,-2086,-428,-1,747,-830
-455,-2079,-373,78,862,-913
-443,-2135,-435,129,849,-999
-432,-2109,-422,149,544,-736
-368,-1997,-340,133,300,-420
-323,-2010,-318,68,202,-179
-339,-2032,-215,77,237,-94
-387,-2006,-204,109,555,-337
-434,-2020,-259,83,646,-535
-439,-2051,-287,23,510,-478
-438,-2042,-313,-43,372,-281
-480,-2057,-327,-101,165,-27
-536,-2037,-369,-140,-78,121
-550,-2052,-410,-112,-239,142
-494,-2058,-410,-91,-357,194
-452,-2025,-423,-114,-592,375
-487,-2077,-480,-183,-964,642
-536,-2100,-513,-139,-1315,933
-514,-1947,-425,17,-1604,1246
-489,-1842,-299,69,-1596,1376
-504,-1796,-199,34,-1262,1223
-546,-1781,-205,0,-732,826
-571,-1807,-269,-29,-322,366
-493,-1824,-298,-71,-37,15
-513,-1957,-397,-79,174,-60
-571,-2090,-471,-64,75,98
-532,-2151,-529,-3,-115,334
-540,-2154,-501,165,-372,636
-566,-2110,-458,299,-686,937
-587,-2063,-389,369,-960,1192
-622,-2007,-309,391,-1202,1368
-624,-1929,-226,401,-1360,1474
-620,-1865,-172,348,-1279,1432
-617,-1831,-59,289,-1019,1273
-576,-1737,61,217,-547,915
-631,-1763,8,123,-24,443
-712,-1792,-3,30,278,112
-764,-1742,-9,-94,605,-176
-826,-1751,-38,-230,877,-395
-910,-1758,-92,-355,925,-454
-962,-1768,-119,-489,985,-508
-1089,-1885,-251,-607,1276,-755
-1284,-2054,-460,-624,1341,-1058
-1360,-2063,-469,-476,989,-1162
-1298,-1818,-292,-333,603,-1116
-1386,-1639,-144,-389,473,-1154
-1497,-1713,-187,-514,479,-1402
-1351,-1850,-267,-548,304,-1585
-1054,-1934,-359,-513,-16,-1555
-792,-2036,-462,-441,-334,-1401
-562,-2042,-416,-280,-721,-1155
-474,-2013,-424,-130,-816,-1054
-393,-2031,-479,7,-800,-1113
-240,-1987,-532,124,-961,-1226
-209,-2002,-515,194,-1107,-1357
-167,-1965,-479,243,-1086,-1409
-7,-1859,-359,270,-872,-1341
91,-1793,-280,194,-709,-1222
106,-1779,-279,72,-673,-1125
113,-1883,-303,-24,-627,-1094
174,-2023,-333,-64,-537,-1046
174,-2065,-376,-104,-485,-928
87,-2113,-385,-169,-467,-701
33,-2244,-459,-265,-452,-439
-29,-2411,-560,-302,-503,-160
-97,-2536,-558,-216,-651,69
-111,-2491,-531,-46,-736,189
-73,-2323,-438,86,-485,157
-90,-2210,-396,145,-216,125
-169,-2119,-337,146,-190,190
-160,-1987,-318,138,-152,247
-158,-1859,-302,130,-114,315
-234,-1800,-296,108,-80,405
-331,-1816,-307,60,-54,496
-409,-1876,-335,24,-77,570
-428,-1946,-423,61,-244,676
-515,-1985,-467,143,-367,834
-559,-2036,-466,232,-474,1098
-558,-2080,-441,302,-707,1487
-525,-2052,-393,373,-911,1845
-495,-2017,-332,473,-1029,2019
-500,-2021,-269,570,-1049,2008
-503,-1971,-183,621,-974,1848
-478,-1887,-149,594,-868,1591
-468,-1847,-90,531,-771,1262
-533,-1868,-38,424,-631,913
-538,-1874,-24,293,-417,571
-542,-1906,-10,166,-189,266
-582,-1903,-40,76,-97,82
-632,-1854,-56,-40,-123,48
-708,-1988,-17,-185,-180,92
-753,-2105,-38,-240,-202,154
-753,-2098,-71,-207,-206,181
-736,-2011,-46,-137,-152,146
-730,-1955,-35,-103,-41,91
-731,-1905,-11,-155,70,48
-719,-1845,21,-253,316,-56
-739,-1846,1,-327,662,-218
-714,-1797,-14,-339,1000,-401
-724,-1724,-100,-413,1395,-635
-759,-1730,-141,-507,1611,-887
-837,-1850,-246,-557,1816,-1102
-888,-1983,-472,-488,1780,-1200
-965,-2061,-592,-355,1348,-1104
-956,-2096,-494,-234,1007,-1078
-797,-2118,-459,-125,1021,-1365
-585,-2081,-436,-28,950,-1654
-413,-2006,-367,37,765,-1689
-299,-1944,-307,20,657,-1495
-306,-1931,-302,-74,594,-1210
-400,-1980,-374,-151,410,-872
-505,-2078,-400,-150,97,-555
-504,-2100,-375,-135,-184,-403
-462,-2097,-368,-126,-418,-396
-340,-2130,-409,-78,-780,-305
-224,-2167,-405,-22,-1231,-12
-59,-2191,-383,-1,-1495,348
231,-2202,-441,10,-1561,741
494,-2294,-540,48,-1479,1179
556,-2439,-657,245,-1357,1692
502,-2452,-786,522,-1287,2216
289,-2309,-725,783,-1203,2582
105,-2041,-552,950,-1104,2658
25,-1747,-381,1046,-943,2553
-110,-1559,-279,1025,-636,2392
-375,-1564,-239,951,-174,2209
-653,-1660,-233,839,181,2061
-857,-1733,-215,741,292,1985
-998,-1712,-154,741,294,1926
-1100,-1675,-107,684,339,1766
-1189,-1665,-38,550,573,1443
-1321,-1749,41,390,1017,987
-1340,-1746,184,239,1682,327
-1460,-1760,111,68,2499,-545
-1574,-1769,-37,-60,2871,-1383
-1633,-1822,-203,-129,2640,-2027
-1564,-1857,-177,-139,2042,-2256
-1418,-1961,-140,-132,1471,-2026
-1224,-1863,-118,-24,858,-1321
-1067,-1749,-34,22,389,-801
-993,-1737,-8,-3,225,-520
-969,-1820,-57,-76,35,-393
-928,-1841,-127,-121,-128,-554
-882,-1862,-134,-147,-240,-708
-842,-1850,-130,-219,-384,-639
-779,-1870,-73,-311,-527,-414
-679,-1838,15,-369,-330,-334
-547,-1832,-122,-373,28,-454
-589,-1875,-199,-344,-83,-417
-510,-1877,-254,-377,-262,-316
-262,-1815,-316,-396,-282,-187
-177,-1831,-366,-412,-285,47
-274,-1933,-450,-460,-262,242
-410,-2093,-597,-434,-232,392
-488,-2253,-713,-285,-513,676
-567,-2224,-711,-48,-970,1104
-651,-2113,-621,239,-1368,1502
-663,-1991,-508,446,-1516,1728
-685,-1973,-412,472,-1440,1738
-662,-1943,-341,460,-1324,1553
-628,-1857,-278,460,-1125,1214
-492,-1786,-83,415,-723,750
80,-1481,447,136,417,-6
-254,-1429,176,-528,2411,-1078
-1500,-2001,-305,-652,1993,-1407
-1782,-2035,-245,-356,560,-1723
-1273,-1858,-286,-288,471,-1807
-890,-1834,-261,-275,231,-1202
-948,-2014,-332,-378,-144,-361
-1049,-2132,-334,-361,-344,75
-923,-2083,-347,-230,-439,71
-802,-1977,-363,-136,-503,80
-807,-1896,-368,-120,-556,186
-841,-1863,-413,-113,-693,297
-845,-1840,-431,-55,-975,449
-781,-1879,-373,-9,-1107,582
-671,-1912,-322,39,-1173,646
-605,-1950,-276,101,-1147,610
-568,-1962,-231,149,-996,469
-552,-1932,-161,148,-695,284
-600,-1921,-223,82,-263,93
-547,-1906,-336,16,111,-64
-498,-1888,-286,6,410,-60
-532,-1955,-306,-50,780,-17
-585,-2040,-421,-61,935,32
-661,-2071,-460,24,798,136
-681,-2083,-455,114,590,297
-686,-2016,-426,191,419,548
-711,-1960,-365,160,276,767
-727,-1979,-377,83,143,860
-726,-1952,-355,121,-6,912
-727,-1859,-237,171,-60,947
-642,-1696,-150,78,183,837
-668,-1733,-207,-26,556,661
-805,-1762,-232,-50,610,597
-877,-1646,-143,-98,739,407
-878,-1548,-117,-204,1026,-9
-788,-1368,84,-424,1399,-559
-1020,-1662,-4,-695,2150,-1367
-1319,-2099,-487,-594,2262,-1853
-1403,-1975,-607,-295,1766,-1669
-1234,-1909,-568,-157,1449,-1764
-1040,-2044,-607,-151,1354,-1670
-1001,-2164,-611,-105,1013,-1268
-988,-2178,-598,-15,642,-935
-885,-2044,-550,120,417,-792
-780,-1940,-487,187,240,-644
-733,-1903,-467,185,38,-443
-638,-1909,-478,177,-242,-224
-493,-1911,-458,215,-469,-13
-394,-1929,-425,268,-638,209
-305,-1933,-438,305,-967,506
-417,-1990,-453,278,-1138,773
-538,-2115,-493,243,-1290,980
-576,-2221,-506,273,-1550,1281
-642,-2253,-483,392,-1924,1714
-682,-2008,-362,601,-2244,2090
-748,-1790,-205,765,-2270,2287
-782,-1655,-115,733,-1981,2240
-792,-1607,-109,555,-1585,1988
-843,-1632,-124,401,-1186,1651
-927,-1674,-113,300,-840,1231
-952,-1641,-108,221,-544,716
-845,-1427,41,105,-72,136
-649,-1258,178,-201,1111,-799
-655,-1327,118,-664,2664,-2074
-1183,-1914,-196,-920,3413,-3191
-1420,-2382,-554,-609,2663,-3439
-1369,-2071,-584,-135,1708,-2507
-825,-1731,-448,-99,1052,-1993
-576,-1883,-469,-379,1024,-1478
-733,-2275,-533,-305,888,-918
-851,-2259,-564,-18,474,-578
-734,-2131,-490,155,186,-458
-598,-2065,-413,200,148,-504
-591,-2055,-363,217,214,-564
-549,-2005,-349,191,114,-502
-493,-1968,-327,144,-3,-332
-496,-1971,-308,99,-95,-166
-482,-1934,-298,92,-205,-65
-465,-1917,-311,96,-340,58
-427,-2003,-424,111,-679,370
-452,-2147,-552,157,-1207,914
-449,-2297,-587,196,-1802,1673
-521,-2267,-527,383,-2477,2546
-622,-2006,-354,808,-2875,3101
-663,-1771,-236,996,-2755,3129
-678,-1629,-188,924,-2330,2756
-765,-1594,-133,757,-1885,2296
-844,-1586,-53,618,-1491,1793
-844,-1514,54,516,-1085,1238
-778,-1383,147,358,-482,575
-611,-1104,302,56,395,-206
-499,-995,428,-514,1929,-1272
-961,-1573,110,-1037,3339,-2363
-1365,-2064,-182,-1118,3309,-2877
-1509,-2295,-380,-893,2712,-2799
-1387,-2180,-469,-463,1977,-2233
-942,-2040,-353,-191,1332,-1920
-805,-1986,-340,-386,1050,-1246
-960,-2129,-371,-488,789,-569
-1037,-2212,-335,-323,461,-446
-874,-2067,-338,-222,177,-488
-663,-2014,-336,-185,-107,-327
-594,-2042,-373,-154,-384,32
-576,-2024,-409,-80,-649,384
-554,-1981,-391,47,-1030,653
-530,-1917,-345,134,-1284,851
-487,-2010,-326,172,-1419,1037
-419,-1936,-390,306,-1575,1267
-396,-1767,-345,443,-1696,1531
-491,-1732,-293,425,-1526,1645
-667,-1764,-296,332,-1274,1565
-796,-1763,-286,292,-1029,1374
-824,-1750,-290,262,-801,1079
-859,-1778,-278,225,-537,703
-921,-1788,-192,211,-239,321
-932,-1680,-96,113,127,-80
-744,-1430,-39,-107,666,-665
-792,-1615,83,-470,1423,-1571
-1152,-2161,-38,-553,1660,-2071
-1330,-1906,-132,-373,1543,-1962
-1269,-1752,-188,-376,1292,-1939
-1081,-1884,-196,-465,1010,-1655
-931,-2064,-278,-511,770,-1133
-938,-2219,-341,-384,466,-637
-921,-2219,-330,-179,187,-427
-808,-2181,-325,-44,179,-610
-688,-2142,-300,81,235,-852
-635,-2013,-255,110,193,-878
-589,-1954,-269,27,122,-722
-519,-1976,-309,-16,43,-480
-442,-1990,-323,11,-54,-218
-353,-1940,-376,59,-207,75
-222,-1825,-421,83,-405,415
-157,-1862,-432,116,-768,813
-239,-1934,-474,152,-1033,1186
-279,-1922,-520,209,-1160,1485
-319,-1918,-519,252,-1245,1718
-460,-1829,-460,334,-1267,1967
-643,-1764,-372,435,-1181,2053
-730,-1759,-348,429,-908,1850
-809,-1849,-323,397,-598,1536
-822,-1868,-279,387,-398,1226
-774,-1809,-239,276,-220,1022
-866,-1890,-197,189,-92,954
-957,-1925,-200,216,-101,855
-1043,-1891,-190,276,-139,763
-1115,-1832,-162,337,-161,704
-1130,-1721,-55,371,-104,570
-1196,-1545,210,276,289,155
-1262,-1430,254,-23,1054,-577
-1433,-1536,351,-350,1484,-1197
-1654,-1683,328,-569,1752,-1737
-1612,-1755,83,-672,1803,-2161
-1476,-1809,7,-690,1484,-2202
-1277,-1900,-65,-721,1072,-1904
-1062,-2025,-202,-727,716,-1461
-935,-2071,-293,-608,316,-1001
-878,-1978,-300,-434,-26,-608
-834,-1798,-280,-305,-276,-320
-870,-1696,-286,-271,-395,-179
-863,-1685,-368,-255,-679,-171
-858,-1653,-365,-237,-1067,-212
-808,-1629,-360,-273,-1179,-318
-740,-1646,-376,-377,-1170,-433
-668,-1666,-287,-531,-956,-593
-604,-1762,-365,-739,-333,-856
-596,-1973,-544,-858,34,-1050
-509,-2182,-699,-788,-2,-1066
-358,-2318,-787,-571,-118,-872
-242,-2338,-810,-324,-261,-518
-104,-2280,-779,-83,-442,-146
-50,-2171,-673,120,-476,131
-123,-2068,-532,217,-423,295
-268,-1979,-437,203,-338,350
-345,-1905,-346,158,-152,321
-354,-1874,-327,90,18,298
-426,-1921,-359,20,62,323
-453,-2009,-427,-33,115,365
-402,-2075,-488,-42,178,450
-378,-2142,-534,-27,237,605
-397,-2204,-579,17,226,806
-404,-2227,-604,137,146,1002
-502,-2357,-608,349,15,1186
-537,-2127,-582,707,-218,1391
-584,-1837,-438,816,-309,1604
-740,-1881,-326,781,-225,1659
-845,-1852,-287,936,-236,1533
-852,-1712,-230,945,-217,1316
-829,-1666,-215,806,-110,1104
-837,-1629,-202,726,-86,996
-823,-1601,-146,642,-127,986
-865,-1565,-135,563,-89,994
-987,-1537,-156,513,-31,986
-1161,-1571,-114,500,7,938
-1231,-1555,-99,484,33,833
-1193,-1542,-96,427,78,751
-1190,-1629,-110,343,146,696
-1264,-1727,-144,289,190,631
-1334,-1742,-171,293,201,526
-1419,-1635,-40,304,287,356
-1603,-1462,189,172,557,33
-1838,-1375,375,-126,976,-467
-1987,-1456,416,-484,1313,-1005
-1911,-1599,270,-747,1332,-1408
-1715,-1761,117,-823,1114,-1532
-1532,-1860,12,-784,788,-1407
-1343,-1949,-140,-683,425,-1163
-1078,-1921,-251,-476,-26,-806
-937,-1797,-183,-276,-390,-367
-961,-1648,-83,-215,-467,-85
-1050,-1568,-81,-256,-426,-87
-1081,-1484,-94,-328,-443,-295
-988,-1462,-105,-451,-357,-588
-859,-1518,-241,-592,-207,-802
-760,-1615,-401,-670,-248,-852
-661,-1649,-442,-667,-351,-800
-542,-1670,-432,-687,-320,-765
-504,-1719,-419,-727,-213,-750
-558,-1752,-464,-751,-53,-800
-639,-1771,-479,-768,108,-919
-718,-1846,-489,-810,275,-1080
-763,-1920,-518,-838,370,-1216
-804,-1993,-559,-837,362,-1282
-800,-2126,-627,-806,265,-1269
-692,-2245,-694,-710,51,-1143
-521,-2283,-750,-563,-232,-886
-349,-2333,-808,-382,-518,-550
-157,-2271,-815,-179,-666,-247
-8,-2148,-764,0,-597,-19
-2,-2071,-678,76,-440,142
-126,-2000,-658,55,-234,176
-292,-1960,-655,16,-67,128
-327,-1949,-647,6,-24,109
-315,-1949,-629,7,-21,189
-344,-1951,-625,14,-21,323
-415,-2003,-662,53,-25,427
-475,-2008,-665,141,-69,520
-538,-1956,-640,207,-95,625
-604,-1930,-632,254,-99,707
-702,-1932,-639,330,-97,757
-795,-1925,-600,414,-105,771
-875,-1904,-566,455,-120,743
-923,-1928,-567,456,-121,643
-918,-1933,-546,485,-123,531
-885,-1847,-447,530,-141,482
-879,-1777,-365,497,-116,469
-906,-1750,-298,434,-51,454
-925,-1719,-252,381,43,410
-936,-1691,-204,335,81,349
-944,-1669,-157,281,78,296
-976,-1678,-124,207,109,260
-1011,-1670,-100,124,219,194
-1021,-1659,-91,46,296,111
-991,-1642,-51,-34,237,44
-906,-1689,-82,-157,223,-64
-797,-1829,-206,-304,256,-158
-741,-1995,-321,-355,210,-153
-685,-2098,-406,-314,121,-109
-635,-2147,-469,-217,30,-67
-640,-2186,-533,-102,-23,-1
-698,-2185,-566,10,-62,133
