ax,ay,az,gx,gy,gz
779,957,1917,324,-33,-85
869,1079,1920,271,-16,-299
1053,1091,1862,239,9,-531
1279,1028,1820,253,-70,-707
1404,943,1825,322,-129,-816
1400,868,1867,350,-172,-864
1255,575,1910,334,-264,-872
1061,483,2018,106,-567,-647
767,439,2000,-341,-661,-944
1146,577,2044,-262,-846,-2121
1542,304,1945,-599,-834,-2224
1659,389,1773,-992,-637,-1739
1472,635,1644,-928,-452,-1307
1168,764,1588,-703,-239,-1170
1119,776,1582,-471,-223,-1227
1248,817,1551,-251,-219,-1265
1332,793,1472,-54,-151,-1184
1356,710,1435,154,-173,-1055
1344,671,1426,386,-297,-967
1330,585,1450,514,-388,-906
1315,510,1473,571,-422,-929
1277,445,1522,598,-425,-978
1257,396,1598,530,-370,-976
1201,348,1635,431,-243,-895
1084,345,1629,327,-77,-723
966,387,1577,222,175,-635
931,395,1540,164,437,-618
935,387,1512,139,646,-582
949,371,1538,219,798,-597
996,325,1605,299,827,-569
1009,318,1676,248,726,-484
961,333,1672,161,568,-447
903,372,1672,176,412,-559
888,411,1733,201,286,-679
908,404,1790,163,174,-795
979,413,1822,85,46,-879
1071,398,1800,10,-57,-881
1189,414,1731,-15,-112,-830
1288,446,1632,-16,-139,-764
1359,451,1555,39,-153,-701
1384,450,1520,114,-160,-610
1345,447,1510,220,-111,-538
1263,409,1582,360,-85,-460
1216,341,1655,405,-79,-363
1182,322,1679,404,-52,-298
1144,311,1690,395,-6,-283
1137,264,1708,406,73,-293
1147,207,1691,401,232,-282
1129,196,1649,404,355,-220
1175,223,1614,410,386,-111
1205,214,1604,432,414,-8
1167,217,1641,469,440,52
1069,210,1710,487,452,68
1004,193,1781,467,416,58
992,176,1825,411,358,39
1038,150,1817,373,315,24
1112,173,1848,323,322,87
1113,175,1849,205,344,176
1125,176,1830,107,302,248
1186,183,1830,56,218,319
1237,184,1868,22,175,368
1268,162,1897,-26,110,389
1293,150,1938,-98,24,413
1314,179,1938,-208,-71,445
1352,250,1951,-342,-164,480
1436,333,1965,-484,-226,507
1524,438,1890,-575,-264,511
1597,581,1820,-602,-252,501
1666,718,1812,-591,-215,496
1736,812,1826,-554,-198,515
1803,878,1846,-477,-162,556
1846,891,1820,-362,-105,607
1841,834,1790,-215,-26,668
1794,718,1753,-78,55,752
1689,574,1713,37,141,858
1512,433,1712,93,202,961
1366,328,1701,52,168,1028
1324,312,1678,-49,87,1064
1336,345,1649,-140,51,1080
1378,401,1652,-184,56,1078
1396,455,1655,-204,104,1080
1405,527,1657,-233,163,1113
1439,635,1631,-271,207,1177
1476,749,1573,-293,254,1227
1519,845,1502,-260,287,1259
1563,898,1451,-186,323,1273
1573,908,1390,-98,377,1286
1558,884,1318,12,449,1258
1522,863,1294,140,484,1187
1510,788,1249,205,440,1163
1498,725,1187,246,379,1170
1470,686,1173,301,347,1153
1458,668,1197,337,292,1151
1466,663,1239,362,248,1156
1472,663,1289,400,236,1178
1431,627,1359,461,275,1220
1357,594,1428,488,352,1256
1305,551,1450,457,407,1253
1301,528,1437,383,419,1210
1341,530,1380,285,393,1133
1406,521,1284,199,360,1047
1448,543,1205,145,349,992
1449,581,1144,108,325,972
1466,631,1120,88,268,962
1514,687,1089,88,207,970
1546,708,1061,126,189,1009
1567,711,1052,207,187,1084
1575,724,1083,313,200,1198
1549,720,1123,408,251,1329
1527,702,1146,490,311,1445
1497,692,1168,578,370,1535
1435,678,1204,649,423,1582
1375,680,1242,688,430,1581
1320,699,1270,706,388,1531
1275,726,1304,707,328,1450
1279,768,1332,696,235,1399
1311,761,1342,714,111,1424
1277,783,1414,736,5,1603
1232,742,1399,658,75,1637
1322,783,1429,715,202,1418
1350,680,1542,803,227,1425
1276,552,1641,856,308,1471
1135,542,1741,842,464,1325
1061,531,1767,741,554,1069
1072,507,1738,608,482,881
1104,543,1699,478,356,749
1148,638,1701,386,206,646
1236,702,1751,305,35,566
1341,859,1832,252,-153,472
1474,1002,1864,235,-301,337
1583,1015,1853,221,-336,182
1631,960,1803,214,-335,64
1627,835,1730,217,-319,8
1615,667,1696,206,-285,3
1563,518,1658,138,-238,27
1471,332,1573,53,-164,79
1199,380,1639,14,-261,432
902,372,1568,-215,-456,530
1071,455,1449,-268,-404,-201
1284,558,1422,-121,-186,-393
1260,600,1453,-4,140,86
1124,721,1421,32,300,620
1021,885,1264,110,345,916
1080,925,1101,406,426,917
1190,945,1119,854,604,874
1216,921,1249,1198,703,919
1213,815,1445,1386,680,1058
1133,701,1621,1480,621,1171
901,747,1776,1494,574,1189
617,800,1862,1435,477,1101
524,802,1872,1407,270,893
520,741,1887,1437,159,627
570,652,1918,1446,105,395
756,567,1893,1398,5,261
960,523,1792,1348,-13,205
1066,490,1710,1360,112,212
1126,458,1683,1414,243,286
1173,442,1706,1469,330,437
1185,420,1756,1535,412,616
1083,409,1851,1595,519,757
893,415,1938,1613,596,833
764,410,1951,1595,602,842
772,400,1942,1587,609,822
816,390,1941,1562,645,819
854,368,1914,1509,659,820
921,367,1886,1453,633,802
977,358,1873,1390,602,789
1002,355,1869,1328,573,789
993,367,1868,1273,584,763
975,382,1885,1241,546,710
1006,366,1861,1163,482,676
1063,362,1809,1096,437,680
1102,368,1769,1069,438,687
1133,361,1740,1050,458,681
1204,338,1735,1015,454,687
1304,271,1764,967,474,725
1357,228,1765,909,530,790
1343,235,1737,830,595,858
1311,252,1709,724,604,897
1321,266,1649,617,537,885
1343,263,1560,525,450,841
1373,258,1490,454,351,794
1423,281,1427,386,237,775
1487,341,1347,333,130,797
1521,429,1276,318,49,840
1557,510,1197,339,-13,882
1594,589,1126,400,-72,927
1660,671,1096,505,-110,981
1732,726,1089,629,-112,1050
1801,751,1088,772,-65,1130
1855,739,1082,911,-10,1215
1883,702,1049,1038,24,1313
1892,648,999,1170,65,1432
1879,597,974,1304,128,1578
1844,569,980,1432,218,1748
1794,562,1036,1531,322,1923
1760,575,1133,1596,430,2086
1744,590,1281,1632,573,2237
1647,606,1428,1628,794,2359
1515,650,1567,1552,977,2427
1434,714,1645,1397,1077,2409
1376,790,1668,1198,1124,2276
1358,829,1650,1005,1059,2017
1442,860,1568,833,898,1678
1622,835,1455,687,735,1360
1800,785,1348,595,614,1140
1911,752,1267,561,527,1015
1951,708,1185,560,432,959
1972,657,1138,599,282,973
2023,591,1115,685,161,1012
2038,559,1178,815,157,1079
1959,523,1283,892,234,1224
1862,503,1390,909,317,1368
1810,470,1432,849,384,1445
1834,445,1395,776,416,1451
1915,453,1335,726,451,1441
1980,443,1293,695,528,1496
1957,468,1301,698,604,1619
1838,499,1329,697,679,1739
1716,525,1381,666,710,1799
1669,554,1422,605,679,1789
1674,599,1450,521,641,1719
1733,629,1439,407,597,1623
1816,663,1367,287,535,1546
1884,707,1272,204,486,1501
1902,740,1175,171,467,1480
1916,749,1109,183,444,1479
1919,750,1085,209,423,1508
1866,756,1091,242,430,1559
1746,756,1118,282,449,1594
1585,757,1166,309,452,1590
1456,767,1210,313,420,1533
1381,769,1252,305,381,1441
1342,759,1290,302,386,1327
1338,735,1308,298,426,1188
1401,690,1373,267,439,1042
1525,649,1409,176,399,912
1658,650,1362,54,333,813
1739,655,1318,-9,296,733
1783,654,1327,-16,262,676
1842,569,1273,-10,231,659
1886,539,1363,10,244,709
1798,540,1406,-3,265,794
1622,525,1407,-18,317,832
1534,520,1369,-40,332,836
1488,558,1296,-53,339,858
1449,550,1254,2,375,894
1400,535,1259,96,445,949
1309,564,1287,166,529,1011
1228,588,1283,211,555,1040
1163,620,1255,269,559,1019
1134,556,1271,336,575,986
1096,605,1287,358,547,986
1049,609,1260,346,492,960
1056,603,1243,369,398,917
1073,616,1279,421,320,893
1072,619,1328,463,276,896
1045,605,1426,499,263,916
967,576,1517,515,274,897
817,612,1613,550,356,803
675,706,1805,479,371,535
668,632,1814,200,221,263
838,687,1769,31,-35,77
1067,772,1612,-57,-225,-41
1227,822,1494,3,-228,-91
1272,863,1444,137,-179,-71
1285,851,1424,297,-170,4
1290,814,1446,500,-145,116
1211,741,1521,722,-51,246
1107,655,1670,884,40,356
1056,596,1785,926,54,413
1045,539,1806,903,73,412
1028,520,1799,881,130,404
1014,550,1788,867,202,423
993,579,1761,862,266,455
988,594,1739,884,299,466
993,603,1737,914,310,455
979,599,1731,923,303,441
964,591,1734,923,282,423
943,582,1749,918,252,408
926,590,1751,908,206,382
929,596,1750,900,159,336
957,593,1778,899,128,290
955,581,1809,893,122,252
978,569,1824,864,95,210
1005,572,1807,834,61,155
1033,575,1769,810,23,84
1078,560,1708,800,-23,25
1110,589,1661,793,-85,12
1133,565,1573,820,-113,-6
1172,541,1545,911,-78,-43
1166,494,1564,976,-20,16
1097,486,1569,1050,57,65
1028,492,1587,1141,103,45
992,428,1616,1181,148,7
1016,404,1659,1185,159,-13
1074,366,1678,1175,180,-9
1126,342,1703,1175,199,6
1165,313,1729,1174,223,21
1175,276,1728,1162,256,45
1170,246,1719,1140,284,75
1154,216,1724,1110,304,93
1169,178,1719,1072,293,102
1196,144,1726,1014,272,119
1209,131,1716,944,278,143
1205,127,1718,877,278,162
1214,128,1721,808,263,175
1239,131,1728,736,253,181
1285,136,1727,660,238,185
1342,140,1717,586,219,197
1397,142,1713,524,208,209
1463,128,1704,458,205,221
1520,116,1691,380,205,260
1551,105,1682,306,214,324
1542,107,1690,234,223,392
1532,110,1693,148,218,450
1513,112,1691,52,201,496
1495,132,1691,-51,182,537
1484,174,1672,-160,147,576
1506,241,1681,-252,116,606
1547,345,1726,-335,96,635
1608,446,1740,-411,71,661
1688,570,1761,-460,54,676
1743,691,1781,-492,40,685
1805,767,1757,-508,11,696
1858,823,1727,-457,-26,700
1913,831,1649,-386,-49,708
1932,749,1560,-282,-41,735
1888,629,1501,-142,1,795
1762,496,1479,-22,64,886
1622,357,1479,34,104,979
1524,299,1505,31,69,1077
1485,280,1517,-52,55,1121
1517,327,1551,-119,79,1117
1556,377,1599,-156,97,1166
1619,422,1550,-173,216,1231
1639,413,1229,-80,890,1170
1552,704,1429,232,2342,865
1474,925,1903,413,2901,671
1514,1088,2147,265,2198,764
1653,1093,2035,11,872,1114
1711,879,1587,-157,235,1425
1577,867,1561,-73,374,1556
1500,879,1605,-15,459,1562
1486,842,1593,-8,396,1529
1450,796,1562,-37,299,1506
1384,763,1514,-78,228,1478
1306,742,1484,-108,172,1418
1255,745,1482,-154,97,1335
1258,779,1484,-228,-12,1244
1301,793,1472,-271,-107,1174
1272,776,1477,-238,-108,1158
1139,742,1535,-187,-43,1174
986,696,1594,-204,-7,1149
859,662,1598,-304,6,1028
836,665,1513,-439,-14,831
913,670,1400,-556,-76,628
1024,685,1255,-639,-152,468
1097,693,1142,-670,-176,356
1060,707,1055,-662,-173,258
1044,725,991,-629,-242,142
1085,743,900,-601,-319,47
1131,762,817,-546,-346,16
1189,783,782,-449,-364,51
1252,877,758,-328,-393,171
1326,961,726,-125,-391,360
1333,911,820,208,-240,590
1162,815,1092,564,22,848
998,737,1387,724,135,1066
919,667,1519,698,88,1201
861,565,1542,651,91,1304
806,531,1529,659,378,1069
820,646,1610,743,559,666
810,613,1636,651,511,527
882,685,1633,528,391,440
959,763,1600,478,288,210
1039,773,1624,524,151,-142
1157,771,1646,550,-51,-449
1274,756,1613,527,-252,-590
1331,746,1547,532,-384,-583
1303,715,1525,589,-397,-503
1246,690,1546,663,-348,-402
1233,656,1635,732,-278,-299
1227,637,1774,774,-214,-185
1176,705,1934,766,-185,-75
1130,811,2032,721,-175,-28
1108,937,2125,684,-173,-69
974,836,1958,644,-193,-206
962,727,1597,888,-1108,-311
1189,1010,1681,1352,-2504,-387
1480,948,2021,1553,-3153,-499
1792,848,2478,1161,-2959,-328
1474,925,2281,228,-1076,-1286
1672,541,1406,94,-92,-2285
1913,281,1462,68,-247,-1989
2003,355,1473,-44,-201,-1357
1794,368,1316,-118,25,-822
1645,506,1330,21,128,-647
1549,577,1363,175,240,-690
1498,559,1424,297,357,-685
1539,532,1466,406,388,-511
1515,528,1536,540,428,-257
1396,535,1675,643,426,-54
1312,516,1786,666,373,-3
1290,477,1839,639,305,-45
1316,433,1866,560,287,-95
1295,401,1860,461,336,-123
1243,375,1871,364,347,-153
1195,357,1888,224,322,-221
1147,372,1828,39,250,-310
1134,418,1714,-114,131,-375
1173,460,1565,-224,52,-473
1223,479,1450,-240,-3,-500
1238,497,1385,-179,-31,-455
1260,487,1356,-100,-35,-419
1273,458,1343,-34,-65,-363
1308,452,1335,25,-101,-314
1321,440,1325,86,-95,-295
1333,405,1332,139,-75,-265
1337,365,1371,180,-26,-209
1302,357,1395,201,50,-142
1266,373,1413,212,115,-87
1260,387,1414,237,155,-45
1260,387,1440,279,188,-9
1255,364,1490,307,194,29
1260,335,1532,309,167,63
1262,308,1564,295,129,87
1253,280,1582,250,110,116
1223,264,1586,203,101,172
1159,289,1588,168,-1,277
1143,317,1531,93,32,232
1194,364,1532,86,170,75
1192,361,1568,79,188,57
1166,369,1590,47,174,123
1141,365,1591,10,185,164
1156,396,1636,-23,186,171
1174,416,1654,-110,186,158
1213,445,1663,-207,162,112
1278,430,1672,-326,99,88
1372,495,1693,-429,-33,75
1431,494,1664,-569,-133,77
1484,523,1642,-677,-248,90
1500,552,1603,-755,-349,119
1465,557,1555,-819,-437,139
1424,572,1518,-874,-531,127
1413,618,1472,-923,-618,82
1404,673,1429,-923,-705,-10
1433,798,1453,-914,-809,-102
1422,916,1420,-886,-906,-224
1441,1163,1401,-699,-1071,-480
1542,1409,1313,-549,-1150,-751
1663,1467,1167,-504,-1061,-838
1705,1457,1005,-412,-900,-796
1647,1438,900,-274,-730,-691
1579,1309,783,-139,-504,-567
1510,1231,858,64,-327,-389
1437,1183,983,229,-209,-206
1371,1136,1103,363,-42,-49
1319,1111,1244,437,62,88
1292,1081,1305,429,18,144
1407,1093,1306,442,-44,11
1563,1076,1281,442,-153,-73
1712,1092,1296,493,-256,-65
1714,1067,1305,659,-272,-24
1707,1030,1364,785,-247,85
1660,1007,1431,841,-190,239
1575,968,1472,854,-132,346
1504,857,1493,823,-94,424
1426,794,1543,751,-4,463
1279,735,1580,609,58,497
1123,738,1556,407,50,485
989,766,1472,198,-2,412
927,792,1381,25,-62,307
947,823,1288,-97,-118,221
1036,857,1196,-144,-157,186
1113,893,1158,-158,-134,195
1103,915,1142,-136,-34,214
1098,864,1150,-73,45,208
1124,864,1191,-60,31,189
1116,860,1215,-76,19,144
1096,848,1240,-120,24,80
1133,841,1200,-175,-21,8
1204,830,1143,-152,-72,-71
1258,830,1143,-105,-74,-146
1330,857,1143,-114,-114,-186
1442,850,1086,-149,-109,-234
1515,880,1100,-117,-4,-239
1503,906,1131,-53,53,-137
1497,922,1200,35,16,-22
1460,892,1245,57,35,24
1443,898,1271,83,78,-44
1432,890,1300,114,38,-141
1423,887,1280,110,-24,-245
1437,914,1257,106,-118,-367
1469,925,1244,48,-184,-459
1490,959,1221,-15,-243,-497
1521,981,1186,-30,-255,-518
1535,974,1195,0,-192,-525
1527,958,1219,27,-114,-507
1518,944,1217,41,-55,-479
1494,930,1197,56,3,-450
1450,940,1171,83,66,-420
1422,965,1172,125,115,-392
1426,997,1229,175,148,-364
1439,1044,1331,222,183,-350
1461,1068,1425,251,216,-386
1485,1082,1507,254,214,-463
1531,1088,1579,199,162,-546
1561,1068,1607,118,94,-632
1552,1018,1583,37,34,-725
1526,940,1522,-52,-16,-812
1541,837,1439,-137,-67,-876
1559,742,1345,-202,-93,-892
1521,705,1268,-227,-68,-869
1444,684,1188,-210,67,-871
1354,671,1098,-132,474,-932
1214,803,1394,-8,818,-936
1271,763,1338,-89,564,-871
1330,770,1109,21,673,-900
1223,908,1323,270,1033,-917
1233,1042,1449,314,928,-885
1337,983,1399,335,629,-760
1353,1003,1504,431,529,-597
1256,1048,1659,449,406,-372
1135,1027,1685,397,159,-134
1007,907,1687,367,46,16
847,836,1705,344,70,94
678,788,1702,287,135,112
554,743,1668,220,131,51
498,739,1652,113,25,-67
574,731,1692,-47,-186,-196
749,714,1660,-229,-426,-321
871,694,1542,-331,-588,-450
955,678,1434,-366,-646,-520
1015,702,1371,-364,-649,-465
1022,712,1311,-370,-655,-336
1023,747,1289,-339,-684,-220
1065,716,1233,-279,-697,-124
1077,736,1288,-131,-550,-55
992,768,1428,-1,-375,24
894,775,1547,51,-253,34
875,730,1710,35,-202,-18
912,708,1826,-64,-181,-55
904,762,1860,-191,-165,-118
931,793,1814,-316,-215,-229
1032,793,1725,-413,-283,-347
1122,806,1622,-467,-280,-415
1197,800,1512,-475,-282,-418
1222,794,1435,-430,-289,-381
1217,783,1378,-371,-327,-327
1207,773,1331,-330,-318,-251
1103,760,1346,-280,-264,-145
962,755,1425,-270,-262,-61
848,739,1465,-318,-306,-31
793,747,1481,-364,-332,-47
805,764,1501,-408,-341,-70
875,777,1516,-453,-352,-77
978,770,1493,-478,-374,-82
1067,756,1503,-487,-383,-88
1138,735,1524,-516,-390,-91
1161,715,1521,-561,-393,-93
1146,728,1524,-619,-420,-105
1148,751,1525,-691,-479,-129
1166,770,1551,-743,-520,-164
1171,868,1625,-811,-555,-201
1166,1032,1662,-905,-583,-250
1205,1214,1664,-961,-573,-324
1351,1344,1729,-937,-543,-423
1553,1411,1781,-893,-533,-507
1714,1432,1716,-842,-523,-549
1844,1340,1576,-734,-456,-556
1917,1196,1505,-585,-367,-455
1867,1004,1529,-447,-313,-231
1667,842,1640,-374,-262,-2
1380,785,1726,-450,-156,66
1212,811,1768,-561,-176,-23
1221,862,1774,-693,-441,-109
1426,879,1661,-864,-645,-213
1595,931,1538,-935,-634,-254
1597,983,1452,-916,-516,-197
1576,1033,1368,-850,-442,-81
1590,1042,1239,-783,-400,95
1571,1085,1105,-663,-279,290
1465,1086,1007,-495,-100,476
1366,1032,946,-327,40,620
1339,1050,914,-181,110,738
1364,960,780,-109,415,790
1220,937,815,131,581,1010
1028,975,950,245,390,1161
956,946,991,193,86,1060
1007,870,986,137,-161,832
1096,859,1020,180,-318,646
1147,850,1083,226,-384,583
1171,855,1105,231,-404,592
1227,883,1143,245,-357,598
1310,864,1148,278,-240,594
1397,822,1155,364,-117,620
1456,817,1176,436,34,688
1495,800,1158,471,192,779
1503,790,1106,505,295,859
1501,781,1086,571,347,900
1519,757,1133,662,387,932
1587,717,1201,719,440,1020
1571,731,1237,743,558,1174
1459,762,1246,761,691,1336
1373,769,1255,789,794,1470
1368,756,1270,832,904,1578
1362,741,1314,862,1046,1667
1352,728,1398,876,1112,1733
1340,742,1485,829,1099,1771
1258,738,1544,702,1087,1705
1301,746,1580,552,1037,1447
1318,656,1614,349,963,1289
1235,634,1651,294,824,1258
1064,626,1685,223,652,1174
963,674,1746,62,507,917
998,689,1750,-80,338,577
1047,731,1753,-140,113,296
1026,771,1772,-171,-77,48
1018,829,1802,-250,-222,-226
1042,875,1733,-410,-366,-476
1124,898,1617,-484,-492,-713
1227,922,1470,-533,-581,-850
1293,946,1348,-565,-536,-838
1274,999,1295,-543,-405,-744
1248,1099,1328,-500,-263,-679
1278,1173,1363,-439,-171,-672
1329,1193,1449,-346,-102,-680
1364,1193,1523,-269,-63,-683
1360,1135,1566,-221,-47,-720
1351,1075,1601,-228,-57,-807
1354,1033,1561,-300,-125,-933
1378,1038,1466,-391,-220,-1094
1461,1073,1365,-464,-332,-1238
1567,1108,1265,-480,-422,-1307
1646,1122,1186,-406,-444,-1288
1649,1088,1148,-245,-379,-1184
1571,1001,1152,-48,-206,-1024
1454,897,1242,159,-28,-820
1390,750,1370,269,124,-657
1332,655,1497,290,263,-565
1252,625,1584,234,285,-520
1220,592,1603,102,240,-542
1246,644,1553,-32,122,-596
1343,697,1478,-99,13,-634
1393,731,1477,-97,13,-595
1372,759,1511,-63,13,-485
1341,783,1553,-58,37,-396
1328,812,1595,12,12,-311
1272,800,1605,66,15,-285
1200,807,1632,114,12,-345
1165,784,1618,113,-6,-433
1130,765,1561,68,16,-509
1144,754,1499,12,5,-569
1227,727,1472,-12,-19,-615
1279,710,1427,-8,-17,-613
1279,714,1396,28,5,-572
1261,711,1410,101,15,-523
1224,693,1450,181,1,-467
1193,624,1484,255,-13,-418
1159,566,1529,302,5,-384
1099,527,1554,302,32,-371
1086,487,1559,268,21,-399
1155,469,1519,219,-32,-444
1253,466,1447,186,-86,-467
1334,444,1360,199,-102,-440
1387,454,1280,261,-80,-341
1420,465,1240,363,-19,-184
1407,463,1248,499,61,-3
1350,447,1311,639,159,163
1249,414,1398,744,225,277
1178,380,1461,775,229,331
1152,323,1491,760,218,331
1167,303,1471,724,194,322
1232,302,1429,693,185,353
1298,300,1452,689,233,429
1297,295,1515,686,277,546
1225,275,1562,670,263,661
1078,256,1629,664,233,716
861,270,1668,552,239,701
832,300,1575,416,315,453
1032,209,1457,339,353,292
1300,265,1398,286,240,369
1517,358,1257,271,124,449
1662,377,1183,367,127,484
1727,383,1254,542,154,659
1632,384,1428,712,305,979
1402,349,1684,804,499,1282
1227,365,1931,746,556,1413
1116,372,2051,549,518,1289
1182,363,2092,277,381,991
1363,327,2018,-62,212,718
1482,450,1896,-375,110,537
1615,540,1809,-608,-14,448
1691,714,1818,-779,-91,476
1748,961,1811,-878,-145,473
1832,1146,1795,-911,-148,422
1920,1298,1761,-855,-141,409
1974,1372,1662,-738,-108,463
1998,1345,1553,-567,-4,510
2033,1156,1503,-362,55,558
1945,891,1552,-181,177,658
1751,716,1638,-147,250,818
1651,586,1614,-259,256,930
1597,593,1595,-361,332,918
1559,654,1590,-412,311,884
1596,693,1581,-482,241,873
1657,769,1556,-522,243,887
1660,856,1543,-485,314,939
1630,933,1502,-386,399,1004
1592,1037,1484,-237,487,1077
1588,1003,1475,-129,573,1140
1606,1048,1473,-75,631,1209
1561,1034,1443,-19,662,1302
1497,987,1453,25,648,1353
1496,905,1459,5,580,1365
1516,831,1430,-34,518,1371
1481,793,1391,-80,481,1346
1432,788,1348,-143,404,1271
1430,814,1257,-196,278,1175
1439,852,1159,-187,187,1100
1394,894,1085,-157,185,1041
1376,930,1031,-107,161,988
1383,938,983,-79,165,976
1412,942,966,-37,195,1032
1397,974,1002,6,236,1143
1243,958,1071,59,316,1235
1068,912,1172,81,327,1241
983,891,1201,27,268,1170
906,886,1165,-77,245,1040
792,902,1132,-196,214,832
688,987,1120,-330,128,509
593,1035,1028,-496,114,-26
634,973,910,-557,5,-340
815,976,866,-476,-115,-314
878,1038,870,-430,-14,-138
926,1120,923,-402,67,48
1074,1137,961,-345,73,139
1261,1111,1045,-278,77,212
1376,1002,1095,-260,178,316
1408,965,1127,-145,226,419
1452,911,1122,72,188,387
1464,909,1215,348,203,299
1437,850,1362,509,251,238
1394,773,1472,565,271,192
1391,726,1568,633,212,119
1389,764,1627,598,148,31
1330,777,1652,486,150,-86
1302,764,1657,371,120,-232
1327,780,1644,263,51,-367
1356,786,1596,166,5,-468
1374,792,1551,82,-8,-543
1402,804,1512,30,-15,-577
1400,805,1477,24,2,-571
1367,795,1464,43,37,-533
1318,795,1472,69,77,-470
1213,812,1500,75,121,-396
1144,849,1576,64,162,-345
1126,926,1699,20,195,-340
1134,1027,1808,-64,257,-389
1114,1172,1939,-145,335,-508
1162,1216,1913,-217,321,-697
1223,1116,1768,-206,506,-973
1303,1123,1867,-147,835,-1305
1451,1098,2015,-191,770,-1534
1533,1011,1983,-323,301,-1590
1473,909,1799,-433,-110,-1509
1245,768,1681,-427,-162,-1409
967,707,1737,-377,-40,-1370
730,644,1817,-415,-48,-1394
632,498,1843,-590,-45,-1638
542,539,1901,-725,-119,-2037
634,631,1893,-964,-449,-2455
1005,626,1638,-1255,-821,-2776
1321,643,1403,-1377,-929,-2890
1465,711,1275,-1308,-902,-2826
1595,710,1196,-1134,-893,-2641
1696,660,1139,-898,-763,-2355
1730,687,1276,-643,-457,-1987
1690,767,1524,-445,-281,-1535
1546,741,1597,-330,-327,-1063
1247,707,1696,-249,-292,-739
1050,707,1824,-251,-267,-648
991,667,1833,-324,-335,-722
945,632,1851,-428,-418,-858
887,611,1829,-569,-536,-1014
867,604,1785,-712,-691,-1187
879,609,1739,-853,-853,-1366
928,635,1668,-1010,-994,-1513
1001,656,1553,-1131,-1076,-1599
1098,705,1491,-1178,-1087,-1615
1158,717,1470,-1169,-1019,-1558
1160,695,1471,-1132,-912,-1463
1123,665,1493,-1093,-801,-1371
1089,635,1509,-1086,-725,-1315
1085,604,1499,-1105,-674,-1298
1093,584,1491,-1123,-634,-1304
1096,582,1481,-1147,-610,-1305
1077,598,1452,-1174,-601,-1299
1041,652,1431,-1192,-598,-1305
1026,715,1389,-1192,-585,-1345
1020,765,1363,-1165,-627,-1348
1045,833,1351,-1121,-691,-1331
1131,897,1356,-1045,-736,-1370
1218,901,1413,-947,-762,-1426
1311,888,1492,-880,-841,-1421
1377,867,1492,-856,-831,-1442
1377,819,1480,-807,-737,-1440
1290,815,1546,-699,-749,-1348
1253,618,1524,-704,-862,-1250
1261,538,1520,-722,-856,-1237
1266,493,1509,-717,-854,-1202
1280,498,1587,-653,-893,-1162
1275,488,1677,-734,-936,-1087
1207,495,1596,-886,-747,-1040
1127,628,1666,-909,-374,-1073
1170,738,1722,-971,-217,-1094
1223,791,1711,-1003,-121,-1150
1355,869,1684,-1006,-55,-1226
1483,935,1595,-1024,5,-1257
1557,992,1508,-955,68,-1276
1629,998,1482,-839,70,-1266
1700,958,1493,-743,-8,-1196
1653,860,1536,-665,-46,-1121
1477,767,1651,-606,-44,-1097
1317,711,1742,-647,-107,-1129
1242,671,1787,-747,-204,-1210
1244,665,1808,-864,-284,-1325
1272,696,1797,-976,-334,-1441
1314,720,1760,-1075,-353,-1529
1398,750,1685,-1144,-351,-1600
1470,737,1607,-1194,-331,-1602
1459,745,1537,-1237,-328,-1560
1445,759,1456,-1267,-329,-1614
1455,739,1387,-1286,-374,-1670
1475,730,1304,-1304,-454,-1666
1493,733,1207,-1275,-516,-1635
1456,758,1165,-1250,-522,-1610
1427,772,1151,-1231,-564,-1598
1446,819,1124,-1226,-657,-1580
1439,832,1135,-1166,-708,-1561
1384,825,1213,-1098,-758,-1539
1359,807,1318,-1114,-970,-1475
1362,793,1349,-1202,-1319,-1402
1408,707,1194,-1306,-1565,-1395
1409,745,1174,-1382,-1459,-1502
1472,765,1164,-1480,-1426,-1632
1594,672,942,-1560,-1494,-1728
1645,729,906,-1512,-1017,-1875
1720,825,1070,-1466,-692,-1956
1768,787,1000,-1461,-723,-1938
1801,768,982,-1395,-669,-1900
1816,740,972,-1303,-564,-1825
1818,721,1007,-1210,-421,-1721
1829,733,1088,-1131,-291,-1591
1853,777,1166,-1078,-175,-1480
1864,821,1227,-1049,-72,-1448
1873,860,1265,-1052,-58,-1490
1885,862,1238,-1066,-97,-1581
1880,835,1167,-1036,-155,-1713
1895,785,1068,-1001,-240,-1824
1919,712,978,-967,-300,-1843
1914,667,935,-929,-341,-1785
1829,626,921,-868,-353,-1720
1757,614,922,-810,-415,-1636
1689,647,957,-788,-515,-1461
1565,646,1014,-766,-515,-1325
1437,634,1115,-732,-559,-1281
1376,634,1190,-725,-681,-1301
1371,667,1212,-736,-773,-1345
1397,701,1178,-727,-817,-1389
1442,728,1132,-655,-847,-1413
1485,735,1087,-547,-852,-1413
1525,723,1067,-422,-833,-1392
1536,680,1083,-295,-826,-1374
1567,614,1136,-173,-877,-1374
1614,544,1187,-108,-932,-1355
1638,470,1228,-71,-923,-1299
1612,425,1275,-42,-877,-1217
1566,472,1297,-26,-822,-1126
1525,475,1266,4,-717,-1066
1514,482,1298,93,-607,-1001
1543,462,1364,172,-467,-933
1583,383,1426,285,-277,-895
1474,402,1468,398,-129,-830
1335,466,1521,495,-71,-818
1264,507,1591,499,-158,-865
1253,513,1636,436,-343,-928
1251,516,1703,401,-514,-1006
1258,483,1802,366,-614,-1101
1227,448,1923,308,-721,-1202
1237,392,1954,202,-869,-1314
1289,365,1974,74,-989,-1427
1394,350,1917,-62,-1119,-1497
1519,352,1856,-160,-1186,-1491
1531,335,1829,-189,-1152,-1415
1436,336,1844,-177,-1089,-1321
1373,326,1878,-179,-1044,-1239
1341,292,1917,-191,-978,-1181
1271,299,1928,-230,-904,-1144
1175,323,1893,-299,-836,-1138
1138,339,1856,-364,-828,-1165
1152,358,1803,-413,-858,-1204
1221,365,1738,-436,-885,-1228
1297,357,1710,-427,-885,-1210
1338,350,1717,-408,-862,-1138
1267,328,1748,-379,-820,-1051
1177,309,1818,-371,-798,-1008
1194,263,1879,-431,-835,-1005
1200,211,1900,-515,-847,-1024
1172,221,1914,-616,-843,-1053
1198,227,1887,-732,-863,-1072
1235,246,1829,-810,-873,-1067
1230,264,1773,-837,-850,-1032
1244,268,1741,-839,-824,-970
1289,281,1713,-845,-777,-891
1307,311,1669,-851,-719,-805
1281,343,1618,-840,-683,-730
1256,372,1579,-815,-674,-684
1267,382,1541,-785,-679,-639
1273,396,1528,-736,-669,-587
1290,389,1529,-680,-656,-534
1344,367,1551,-631,-631,-463
1323,326,1601,-580,-549,-374
1215,302,1676,-538,-457,-299
1182,302,1734,-554,-419,-244
1159,291,1789,-578,-387,-200
1069,264,1842,-587,-327,-182
996,269,1862,-615,-293,-193
999,285,1853,-664,-296,-222
1069,282,1821,-735,-319,-269
1205,351,1807,-788,-371,-312
1352,421,1855,-827,-385,-308
1509,547,1922,-891,-383,-236
1642,702,1896,-919,-374,-153
1760,761,1815,-858,-333,-99
1908,718,1743,-748,-299,-26
1985,617,1663,-632,-292,112
1999,506,1626,-518,-275,313
1957,427,1661,-423,-220,553
1812,360,1784,-366,-118,775
1618,327,1932,-384,-25,919
1492,407,2036,-505,9,968
1446,536,2047,-661,41,924
1455,619,1981,-778,63,891
1501,718,1895,-832,73,904
1545,785,1796,-817,116,894
1573,762,1730,-776,164,883
1608,738,1687,-749,205,883
1656,712,1643,-747,255,883
1732,679,1592,-764,239,888
1768,665,1540,-782,231,920
1752,705,1580,-769,221,960
1713,750,1706,-769,172,967
1702,751,1821,-835,110,940
1727,751,1857,-906,35,888
1747,751,1852,-963,-15,825
1788,752,1816,-1053,-37,770
1795,761,1718,-1139,-45,748
1752,759,1614,-1183,-25,700
1760,765,1500,-1183,-67,620
1811,753,1376,-1164,-114,561
1854,735,1230,-1101,-84,512
1913,863,1169,-896,37,453
1855,914,1233,-957,81,761
1659,866,1024,-1275,46,1116
1638,1007,851,-1270,-39,1200
1607,1045,717,-1045,-79,1171
1508,1067,753,-770,92,1000
1436,1092,755,-641,105,859
1441,1102,664,-584,28,798
1442,1095,577,-473,15,806
1413,1106,558,-262,49,855
1336,1167,578,-40,109,955
1225,1124,695,166,214,1056
1087,1043,890,321,274,1111
988,979,1003,374,248,1077
943,919,1057,378,215,963
941,889,1104,371,181,829
907,847,1169,339,122,709
892,788,1233,209,-36,659
857,776,1237,18,-255,639
856,771,1138,-159,-429,431
973,701,1049,-96,-528,140
1106,652,1142,-2,-503,-128
1172,598,1204,-30,-389,-327
1109,690,1167,15,-260,-466
1004,773,1177,107,-195,-590
1024,693,1158,115,-107,-707
1124,734,1119,220,-64,-760
1123,767,1136,412,52,-795
1081,761,1246,601,165,-927
1123,758,1335,667,124,-1038
1223,762,1376,652,22,-1046
1300,763,1405,617,-24,-1009
1333,770,1460,611,-71,-970
1346,775,1554,619,-129,-952
1329,774,1633,579,-184,-962
1327,761,1698,513,-230,-1008
1337,752,1751,460,-251,-1099
