ax,ay,az,gx,gy,gz
-321,-1951,58,498,-897,1689
-385,-1904,117,505,-731,1446
-436,-1946,114,479,-520,1155
-474,-1960,109,452,-347,912
-516,-1921,120,406,-229,694
-543,-1858,169,319,-98,460
-567,-1792,227,203,182,197
-582,-1800,223,86,436,-58
-625,-1814,241,18,570,-229
-670,-1863,199,-13,651,-297
-698,-1850,173,-41,602,-256
-705,-1789,281,-103,555,-244
-638,-1744,346,-219,806,-417
-516,-1591,316,-350,1082,-755
-568,-1544,287,-505,1153,-1271
-704,-1828,301,-611,973,-1853
-718,-2091,165,-549,843,-2275
-614,-2128,54,-337,635,-2364
-484,-2152,65,-223,313,-2108
-410,-2222,29,-190,157,-1692
-374,-2302,-45,-150,85,-1172
-360,-2331,-77,-153,-7,-629
-293,-2363,-121,-225,-71,-306
-199,-2423,-175,-164,-165,-98
-183,-2484,-193,-8,-391,253
-172,-2437,-219,198,-704,835
-159,-2280,-180,391,-1021,1538
-207,-2131,-106,479,-1251,2112
-282,-2012,2,501,-1308,2418
-336,-1903,93,507,-1184,2443
-396,-1810,178,509,-998,2267
-443,-1771,225,495,-810,1984
-487,-1792,219,449,-583,1584
-563,-1825,213,371,-371,1100
-630,-1818,267,247,-117,582
-594,-1744,312,59,359,-24
-507,-1641,298,-176,1043,-737
-509,-1666,255,-404,1532,-1451
-609,-1835,257,-556,1674,-2061
-720,-2097,99,-525,1506,-2480
-708,-2146,42,-305,1013,-2413
-596,-2073,69,-145,652,-1964
-475,-2017,88,-148,445,-1323
-464,-2075,77,-204,269,-614
-516,-2112,58,-236,79,-40
-448,-2149,16,-286,-121,148
-396,-2264,-44,-152,-257,180
-421,-2384,-110,29,-426,364
-462,-2502,-183,163,-649,744
-451,-2604,-224,328,-918,1384
-410,-2451,-172,535,-1228,2169
-420,-2159,-22,689,-1420,2701
-473,-1892,139,768,-1422,2776
-532,-1689,335,782,-1263,2524
-515,-1525,390,724,-1075,2093
-511,-1440,413,610,-790,1575
-577,-1478,454,348,-460,1000
-614,-1582,378,-4,-206,408
-589,-1624,304,-233,181,-109
-602,-1641,342,-414,754,-648
-618,-1731,315,-620,1455,-1298
-660,-1882,225,-732,1766,-1858
-649,-1949,164,-709,1723,-2292
-685,-2060,64,-595,1572,-2596
-671,-2160,1,-426,1242,-2597
-603,-2197,-2,-266,912,-2375
-428,-2157,1,-140,633,-2095
-341,-2101,-34,-177,426,-1310
-462,-2104,5,-270,153,-164
-488,-2151,-15,-309,-86,313
-448,-2235,-51,-130,-245,349
-414,-2217,-67,68,-523,421
-398,-2178,-56,88,-704,511
-408,-2185,-32,112,-752,656
-450,-2179,-3,166,-796,789
-456,-2096,25,193,-830,855
-449,-2002,60,212,-810,897
-477,-1935,121,234,-745,896
-504,-1876,177,220,-657,799
-500,-1833,207,172,-512,638
-482,-1809,209,91,-242,422
-497,-1887,143,-5,19,178
-542,-1983,89,-53,47,15
-550,-2032,71,-46,28,-74
-525,-2052,64,-9,44,-57
-542,-2060,64,-9,9,30
-575,-2056,78,-4,-27,107
-556,-2006,110,22,-32,120
-532,-1959,138,30,13,48
-560,-1949,130,32,38,2
-593,-1968,132,16,25,9
-589,-1975,138,-17,4,42
-560,-1965,146,-39,-31,68
-566,-1955,138,-46,-33,60
-591,-1966,129,-52,-26,37
-612,-2007,108,-61,-22,27
-591,-2022,102,-65,-29,31
-542,-2026,87,-59,-52,32
-540,-2033,70,-37,-53,18
-556,-2031,73,-3,-39,9
-575,-2017,78,12,-21,8
-573,-2004,80,14,-27,31
-531,-1974,96,12,-29,54
-512,-1952,100,6,-8,49
-528,-1961,95,1,5,38
-548,-1957,112,-1,13,32
-525,-1902,152,-30,55,-1
-487,-1847,188,-98,249,-167
-446,-1827,172,-164,546,-505
-394,-1692,264,-237,797,-999
-416,-1725,279,-400,1306,-1759
-544,-2100,54,-477,1515,-2427
-633,-2312,-37,-307,1101,-2508
-557,-2215,6,-108,628,-2229
-385,-2112,11,-23,431,-1849
-319,-2173,-9,-23,284,-1318
-324,-2184,-28,-23,121,-646
-320,-2158,-32,-78,46,-123
-220,-2237,-73,-188,-70,67
-177,-2290,-95,-100,-263,242
-179,-2281,-127,50,-496,524
-212,-2225,-125,176,-740,872
-257,-2176,-68,252,-967,1217
-274,-2059,17,300,-1056,1458
-304,-1963,124,316,-924,1485
-338,-1892,197,287,-556,1221
-386,-1867,222,233,-133,802
-413,-1821,243,157,218,401
-448,-1849,148,68,388,70
-467,-1920,103,-15,299,-107
-441,-1987,84,-66,267,-113
-428,-2043,58,-96,219,-1
-437,-2132,13,-96,132,49
-451,-2172,12,-22,121,19
-454,-2113,55,57,157,-28
-465,-2088,87,63,228,-96
-441,-2057,85,28,345,-244
-406,-2042,60,29,405,-372
-441,-2011,85,59,317,-336
-466,-2013,99,26,209,-240
-452,-2030,75,0,101,-94
-444,-2043,69,34,-40,133
-424,-2021,85,48,-189,363
-393,-2013,63,18,-331,505
-432,-2072,31,33,-420,628
-472,-2122,-4,74,-481,792
-504,-2126,6,136,-552,1033
-527,-2081,45,205,-688,1255
-526,-1972,90,250,-768,1366
-505,-1875,136,222,-715,1344
-530,-1834,195,159,-587,1193
-598,-1828,255,93,-470,992
-598,-1789,247,36,-344,771
-597,-1817,210,-53,-192,572
-611,-1909,184,-137,-104,396
-621,-1979,150,-180,-72,224
-646,-2011,106,-184,-42,69
-659,-2043,82,-155,-4,-27
-662,-2076,72,-105,2,-64
-649,-2070,79,-46,-7,-98
-591,-1940,156,-48,104,-168
-510,-1841,188,-111,423,-453
-533,-1880,180,-174,596,-875
-563,-1847,253,-220,712,-1270
-557,-1891,154,-285,970,-1588
-569,-2027,39,-313,859,-1553
-584,-2124,4,-261,556,-1231
-533,-2137,-14,-184,348,-813
-464,-2145,-28,-133,225,-395
-470,-2177,-18,-90,138,-102
-458,-2156,-33,-48,37,-37
-443,-2125,-13,75,-53,-41
-428,-2036,73,139,-58,-73
-391,-1964,82,88,112,-293
-457,-2024,58,22,195,-508
-495,-2056,63,18,175,-588
-438,-1986,83,42,143,-593
-397,-1981,76,14,104,-529
-410,-1977,74,-3,39,-325
-430,-1970,74,-2,-49,-37
-443,-1974,77,-33,-145,195
-413,-2039,42,-96,-226,285
-408,-2127,0,-44,-295,378
-440,-2173,-41,34,-395,509
-461,-2135,-53,99,-556,690
-502,-2082,-43,142,-763,923
-551,-2027,23,166,-945,1095
-562,-1962,100,172,-1020,1137
-551,-1918,173,162,-951,1069
-517,-1878,218,139,-797,915
-528,-1855,253,99,-618,737
-555,-1867,259,35,-452,563
-568,-1900,239,-35,-313,411
-576,-1951,189,-87,-212,300
-569,-2009,144,-116,-139,200
-559,-2046,108,-113,-91,98
-563,-2066,86,-90,-64,29
-566,-2087,66,-56,-53,-4
-554,-2083,63,-24,-62,-30
-553,-2036,79,18,-74,-32
-562,-1985,101,54,-76,-3
-561,-1959,109,46,-64,9
-538,-1901,146,22,-17,-33
-543,-1880,176,-9,69,-150
-589,-1925,146,-32,128,-226
-618,-1974,84,-43,116,-202
-587,-1952,143,-68,74,-192
-440,-1803,291,-183,397,-529
-457,-1958,140,-284,851,-1119
-623,-2155,32,-224,748,-1324
-646,-2104,34,-125,407,-1172
-518,-1939,40,-90,87,-899
-478,-2001,52,-134,-133,-561
-520,-2129,39,-123,-237,-173
-533,-2029,34,-73,-410,103
-474,-1967,80,-77,-616,103
-434,-2024,98,-64,-594,24
-427,-2094,73,-44,-530,-12
-439,-2107,70,-10,-548,6
-427,-2078,100,25,-534,40
-420,-2078,106,44,-447,49
-419,-2090,109,54,-362,41
-404,-2034,137,76,-246,17
-414,-2022,118,79,-110,5
-457,-2141,90,87,-56,77
-471,-2350,46,159,-50,289
-424,-2343,2,330,-105,663
-433,-2148,36,475,-206,1000
-489,-2026,78,517,-203,1163
-544,-1977,120,506,-121,1185
-573,-1899,163,466,-58,1131
-582,-1813,218,402,-31,1053
-595,-1751,265,312,-29,943
-615,-1739,290,211,-25,808
-602,-1686,308,106,-7,615
-561,-1621,348,-27,132,277
-588,-1674,354,-182,416,-216
-584,-1660,338,-342,753,-766
-543,-1709,309,-485,1005,-1364
-596,-1976,240,-608,1182,-1913
-694,-2210,63,-555,1040,-2141
-676,-2196,31,-380,663,-1908
-563,-2131,41,-266,407,-1480
-449,-2123,46,-229,263,-991
-435,-2142,59,-198,159,-476
-418,-2071,50,-209,53,-76
-296,-2083,36,-230,12,-53
-287,-2100,55,-129,146,-294
-344,-2159,13,-51,307,-500
-416,-2228,-11,7,263,-463
-418,-2158,-8,46,111,-220
-382,-2072,24,61,-7,52
-383,-2038,55,38,-116,219
-385,-2002,51,44,-192,287
-391,-2005,59,68,-265,344
-416,-2052,35,82,-353,428
-440,-2131,-1,101,-435,588
-457,-2157,-3,155,-527,800
-449,-2113,40,212,-575,961
-436,-2064,70,248,-562,976
-452,-2008,121,277,-506,867
-477,-1902,207,290,-421,709
-481,-1760,284,229,-246,524
-507,-1680,317,79,4,261
-550,-1642,316,-108,202,-65
-528,-1516,354,-290,366,-473
-540,-1621,315,-508,697,-1039
-615,-2077,136,-644,830,-1465
-578,-2279,39,-525,618,-1486
-465,-2251,20,-362,427,-1332
-389,-2263,-14,-284,374,-1159
-388,-2349,-35,-208,347,-898
-378,-2312,-23,-100,258,-590
-325,-2185,-14,-23,174,-314
-270,-2159,-17,-12,49,-76
-249,-2148,-4,28,-105,161
-252,-2126,0,91,-241,369
-273,-2122,-1,159,-379,581
-304,-2133,-11,229,-484,809
-350,-2170,4,286,-561,1012
-389,-2246,-18,360,-586,1176
-445,-2199,-17,457,-574,1364
-490,-2064,37,503,-531,1444
-500,-1937,59,468,-456,1379
-506,-1784,69,413,-442,1215
-533,-1622,214,318,-467,892
-584,-1508,429,135,-331,368
-548,-1446,554,-170,185,-333
-535,-1676,393,-400,694,-1005
-546,-1834,327,-477,726,-1238
-513,-1895,233,-516,749,-1293
-491,-2053,95,-520,719,-1245
-525,-2282,14,-440,544,-1001
-545,-2356,-23,-275,366,-671
-493,-2322,-46,-172,250,-405
-441,-2341,-44,-98,174,-188
-415,-2346,-56,1,37,40
-389,-2266,-49,129,-145,242
-344,-2152,-9,246,-329,447
-323,-1998,85,299,-447,611
-340,-1879,172,259,-334,618
-385,-1893,181,178,-98,498
-429,-1934,129,139,36,411
-443,-1905,108,128,44,425
-453,-1931,91,91,23,505
-462,-2009,17,59,-17,643
-538,-2097,-50,78,-58,801
-638,-2123,-15,118,-150,894
-652,-2108,24,148,-140,835
-608,-2048,58,181,-36,701
-567,-1958,123,187,98,555
-555,-1853,181,155,171,391
-549,-1677,289,91,189,156
-475,-1461,497,-64,510,-367
-419,-1514,406,-307,1085,-1160
-507,-1735,329,-462,1174,-1703
-633,-1929,247,-501,1115,-2071
-639,-2063,67,-472,1012,-2220
-609,-2252,-54,-403,810,-1961
-580,-2406,-89,-284,577,-1471
-447,-2364,-107,-167,379,-943
-355,-2273,-90,-91,254,-427
-332,-2195,-43,-120,143,-106
-316,-2183,-59,-95,47,-21
-273,-2188,-70,21,-145,44
-255,-2087,-14,109,-313,149
-260,-1991,34,106,-264,229
-302,-2013,41,47,-181,238
-331,-2024,34,39,-141,203
-314,-1991,36,67,-130,193
-329,-2037,25,71,-152,245
-376,-2186,-31,82,-226,394
-392,-2316,-108,164,-353,698
-412,-2263,-126,289,-552,1108
-464,-2153,-74,355,-760,1425
-502,-2079,1,364,-854,1562
-519,-1998,86,377,-823,1548
-521,-1877,165,387,-725,1432
-549,-1767,254,351,-591,1269
-587,-1699,311,261,-441,1091
-612,-1671,342,135,-316,913
-610,-1655,344,-6,-186,718
-610,-1671,330,-157,35,475
-582,-1659,362,-306,327,135
-537,-1642,410,-496,924,-474
-557,-1800,178,-612,1383,-1237
-594,-1919,119,-591,1139,-1745
-677,-2190,45,-436,960,-2091
-644,-2287,-76,-282,734,-2023
-582,-2250,-80,-178,444,-1587
-504,-2231,-56,-136,257,-1132
-416,-2216,-59,-154,168,-716
-364,-2153,-61,-178,72,-332
-319,-2157,-87,-186,-53,-106
-320,-2194,-103,-87,-202,60
-316,-2212,-133,5,-385,294
-321,-2227,-147,80,-603,618
-344,-2255,-152,168,-780,950
-382,-2212,-113,273,-903,1194
-420,-2117,-36,348,-919,1283
-437,-2013,54,381,-817,1240
-483,-1953,106,368,-627,1092
-532,-1889,155,328,-476,912
-569,-1813,195,270,-402,749
-593,-1782,206,184,-338,588
-606,-1805,207,104,-219,438
-584,-1756,249,29,-26,271
-533,-1650,195,-101,293,-77
-489,-1478,267,-259,435,-576
-511,-1483,280,-471,652,-1334
-601,-1914,244,-638,759,-2167
-598,-2248,102,-539,583,-2748
-540,-2247,24,-216,332,-2933
-525,-2221,54,27,108,-2815
-432,-2274,27,106,-30,-2483
-330,-2385,-34,156,-118,-1877
-308,-2419,-40,212,-257,-1049
-409,-2509,-115,203,-374,-200
-440,-2715,-158,98,-521,466
-378,-2588,-151,261,-780,1040
-278,-2261,-126,548,-939,1616
-189,-2088,-55,582,-1033,2093
-169,-1931,121,468,-959,2427
-221,-1770,322,300,-606,2462
-209,-1699,368,147,-133,2148
-278,-1752,313,109,293,1717
-354,-1746,276,152,579,1248
-334,-1658,101,124,594,688
-348,-1738,117,-2,385,125
-416,-1899,124,-146,354,-360
-440,-1930,98,-209,322,-600
-438,-1928,130,-234,323,-663
-420,-1966,83,-247,449,-703
-437,-2023,52,-229,464,-662
-502,-2030,56,-174,336,-473
-510,-1982,113,-130,264,-300
-460,-1956,111,-166,298,-292
-437,-1931,126,-188,282,-317
-447,-1935,168,-194,262,-390
-449,-1951,95,-213,312,-539
-487,-2027,19,-203,209,-624
-557,-2186,33,-186,30,-616
-575,-2302,5,-160,-46,-545
-534,-2316,-42,-98,-143,-357
-494,-2272,-23,-15,-289,-104
-441,-2228,5,43,-380,106
-400,-2166,30,66,-460,212
-422,-2095,61,130,-462,234
-467,-2088,65,186,-424,233
-525,-2186,47,215,-445,304
-515,-2221,3,275,-536,513
-453,-2161,16,350,-643,801
-404,-2086,47,379,-683,1039
-392,-2019,87,352,-673,1145
-410,-1955,147,314,-582,1119
-415,-1915,186,294,-434,1014
-405,-1875,203,270,-284,862
-402,-1812,244,230,-142,683
-402,-1746,283,157,64,434
-459,-1784,221,71,327,131
-545,-1855,188,34,328,-45
-631,-1872,207,0,227,-111
-664,-1893,193,-59,212,-129
-682,-1970,151,-92,191,-86
-677,-2045,134,-92,119,2
-641,-2032,134,-72,57,43
-603,-2008,129,-58,59,39
-576,-2003,139,-60,90,9
-532,-1937,160,-67,153,-71
-497,-1815,214,-92,276,-240
-385,-1528,272,-200,481,-587
-355,-1342,419,-446,738,-1246
-571,-1711,420,-734,1069,-2041
-611,-2138,137,-740,896,-2564
-592,-2180,42,-409,392,-2589
-432,-2072,70,-176,124,-2414
-302,-2214,14,-186,29,-2057
-282,-2560,-140,-197,-160,-1393
-302,-2857,-243,-72,-156,-483
-257,-2932,-259,42,-148,356
-125,-2801,-291,290,-221,969
-95,-2427,-233,687,-476,1674
-164,-2121,-102,809,-792,2169
-192,-1935,16,734,-931,2334
-214,-1728,207,639,-864,2381
-252,-1555,367,508,-437,2148
-378,-1592,378,368,36,1645
-471,-1604,371,251,104,1128
-552,-1663,284,168,285,535
-564,-1803,172,60,392,41
-573,-1872,148,-59,332,-196
-626,-1939,158,-152,366,-273
-654,-2034,130,-196,445,-329
-631,-2046,117,-161,420,-343
-617,-1992,150,-128,333,-247
-587,-1939,185,-114,269,-198
-553,-1840,233,-133,292,-295
-555,-1774,250,-202,381,-495
-493,-1579,292,-332,429,-764
-497,-1535,401,-518,495,-1292
-617,-1941,320,-680,600,-1958
-613,-2200,101,-562,541,-2357
-480,-2175,45,-330,160,-2257
-336,-2189,4,-245,-146,-1870
-248,-2307,-53,-208,-116,-1410
-221,-2468,-129,-183,-130,-804
-236,-2537,-169,-166,-193,-169
-177,-2642,-240,-90,-280,242
-116,-2606,-215,175,-456,698
-85,-2347,-173,442,-679,1250
-124,-2169,-125,567,-912,1723
-192,-2038,-41,599,-1088,2046
-237,-1879,79,598,-1068,2180
-279,-1755,256,546,-803,2066
-362,-1698,382,446,-476,1714
-406,-1725,352,332,-178,1244
-468,-1764,278,244,122,746
-555,-1820,237,133,325,292
-598,-1901,189,3,500,-83
-637,-2026,113,-76,594,-325
-666,-2174,68,-88,524,-355
-619,-2160,64,-17,394,-207
-576,-2048,108,50,238,-6
-589,-1972,165,85,124,148
-593,-1923,213,94,71,198
-555,-1836,265,67,69,154
-541,-1783,253,-3,108,55
-527,-1744,229,-92,113,-61
-502,-1696,222,-195,85,-238
-498,-1619,241,-326,51,-515
-571,-1609,396,-505,158,-946
-576,-1856,336,-675,526,-1527
-537,-2088,159,-628,561,-1924
-570,-2164,75,-457,248,-2002
-439,-2108,74,-352,60,-1922
-330,-2173,33,-345,-74,-1630
-276,-2287,-67,-328,-149,-1178
-294,-2473,-95,-269,-129,-659
-268,-2596,-201,-211,-240,-167
-163,-2649,-271,-26,-397,300
-156,-2581,-227,244,-571,833
-166,-2331,-185,478,-801,1353
-169,-2158,-102,563,-980,1709
-151,-2006,13,565,-997,1904
-181,-1880,153,532,-829,1955
-229,-1748,276,479,-435,1751
-339,-1740,340,389,-86,1365
-421,-1730,296,292,58,966
-483,-1749,253,199,205,572
-483,-1797,193,80,321,236
-538,-1925,126,8,375,33
-619,-2013,95,-26,345,-23
-675,-2066,99,-45,291,2
-680,-2093,96,-8,265,25
-643,-2068,117,29,210,37
-613,-2007,163,59,125,55
-586,-1932,207,57,65,68
-574,-1861,258,20,31,69
-562,-1794,304,-35,51,47
-547,-1735,342,-101,168,-56
-506,-1668,383,-224,428,-310
-402,-1604,387,-396,926,-792
-313,-1534,309,-560,1395,-1427
-509,-1904,155,-651,1501,-2078
-708,-2419,-64,-465,1107,-2414
-632,-2466,-141,-118,657,-2283
-405,-2327,-81,40,374,-1917
-259,-2279,-40,34,198,-1462
-199,-2244,-65,-14,117,-917
-202,-2223,-72,-51,88,-336
-234,-2303,-81,-113,-25,58
-197,-2450,-131,-40,-234,312
-128,-2465,-166,179,-482,740
-94,-2341,-173,376,-772,1342
-201,-2198,-105,468,-1072,1901
-316,-2053,-6,457,-1251,2181
-317,-1860,185,425,-1103,2139
-332,-1727,320,385,-558,1743
-415,-1748,304,327,-115,1205
-520,-1778,267,279,45,771
-593,-1763,278,194,119,403
-535,-1761,268,40,279,41
-525,-1874,179,-75,418,-214
-576,-1969,136,-133,397,-313
-588,-1988,158,-118,417,-350
-567,-1987,143,-123,443,-360
-553,-2009,121,-129,431,-377
-563,-2025,115,-106,381,-368
-546,-1960,139,-104,300,-322
-503,-1853,223,-155,326,-366
-444,-1827,160,-237,454,-543
-455,-1796,109,-271,289,-675
-513,-1837,232,-312,162,-848
-482,-1995,143,-364,329,-1045
-450,-2103,65,-318,237,-975
-444,-2118,58,-236,20,-728
-393,-2116,29,-239,-72,-500
-320,-2265,-50,-291,-143,-313
-285,-2468,-148,-233,-278,-63
-246,-2595,-217,-47,-440,314
-226,-2650,-242,200,-668,808
-270,-2461,-193,449,-986,1381
-365,-2161,-94,593,-1270,1800
-412,-1978,31,610,-1351,1934
-423,-1814,188,580,-1242,1856
-405,-1648,350,483,-950,1584
-406,-1598,386,336,-441,1121
-490,-1665,329,182,11,614
-585,-1755,260,55,292,138
-637,-1825,220,-49,451,-239
-648,-1892,176,-136,568,-464
-641,-2020,104,-191,594,-528
-642,-2094,84,-162,432,-395
-634,-2069,94,-90,273,-194
-608,-2038,110,-44,172,-46
-583,-2013,126,-30,54,29
-563,-1952,169,-19,-16,61
-537,-1842,224,-41,18,18
-535,-1734,258,-123,138,-162
-449,-1496,372,-259,361,-525
-419,-1536,320,-487,813,-1200
-541,-1920,176,-609,894,-1687
-603,-2148,107,-491,732,-1841
-554,-2173,24,-294,570,-1823
-462,-2200,1,-191,302,-1579
-362,-2254,-19,-160,115,-1184
-313,-2345,-56,-149,12,-702
-292,-2430,-132,-151,-72,-214
-247,-2608,-211,-72,-176,172
-179,-2721,-260,195,-397,657
-193,-2480,-229,507,-806,1317
-300,-2172,-145,667,-1169,1855
-371,-2012,-48,676,-1354,2160
-407,-1873,106,652,-1359,2263
-424,-1705,280,581,-1237,2118
-420,-1643,326,460,-958,1736
-469,-1679,345,347,-618,1295
-563,-1675,407,236,-234,824
-616,-1646,351,89,231,236
-645,-1665,310,-96,603,-294
-701,-1801,251,-267,830,-680
-717,-1938,179,-359,839,-845
-690,-2004,146,-342,760,-836
-641,-2006,134,-318,686,-746
-630,-2059,109,-281,586,-604
-617,-2060,113,-226,407,-421
-584,-2013,117,-191,232,-286
-562,-2012,109,-174,94,-176
-558,-2054,89,-163,-49,-80
-547,-2067,77,-135,-142,-27
-535,-2082,55,-96,-192,24
-531,-2120,45,-59,-242,90
-518,-2094,62,-19,-286,151
-492,-2017,112,15,-261,172
-479,-1946,129,13,-155,118
-484,-1913,122,-22,-92,35
-513,-1916,114,-51,-86,-14
-513,-1940,99,-76,-52,-20
-501,-1973,76,-117,7,-30
-497,-2040,46,-126,86,-68
-520,-2080,26,-88,123,-103
-525,-2103,15,-33,104,-103
-512,-2090,35,10,71,-54
-509,-2043,49,35,17,35
-524,-1996,88,47,-34,111
-517,-1939,125,40,-54,130
-513,-1908,132,19,-34,103
-529,-1919,147,-7,-17,69
-552,-1941,140,-32,-18,46
-564,-1964,125,-56,-31,46
-573,-2005,98,-73,-24,54
-590,-2069,75,-72,-5,66
-597,-2100,55,-48,-28,77
-605,-2159,43,-3,-47,88
-578,-2218,19,78,-88,172
-558,-2149,38,170,-202,359
-560,-1973,78,222,-282,553
-564,-1918,133,183,-287,669
-564,-1906,148,131,-306,614
-567,-1840,164,138,-276,558
-595,-1820,185,123,-221,506
-622,-1838,185,54,-168,428
-631,-1877,157,-19,-90,341
-635,-1919,133,-48,-25,300
-658,-1937,118,-56,18,340
-673,-1958,107,-71,40,408
-688,-2008,123,-58,29,431
-684,-1981,101,43,-19,385
-691,-2017,106,49,45,327
-742,-2087,113,158,-22,363
-683,-1931,106,376,-176,654
-623,-1884,131,355,-209,830
-617,-1834,198,203,-76,668
-663,-1822,222,86,55,379
-760,-1850,236,65,46,131
-762,-1869,144,10,9,-91
-769,-1966,120,-56,152,-220
-745,-1956,141,-108,130,-224
-722,-1957,154,-136,135,-217
-727,-1996,113,-60,181,-210
-760,-1956,140,15,103,-22
-732,-1918,167,-19,-12,148
-668,-1855,134,-5,-70,218
-681,-1872,126,1,58,183
-721,-1899,167,-24,131,29
-684,-1866,215,-72,225,-209
-613,-1764,305,-97,549,-568
-559,-1724,289,-164,1022,-1120
-615,-1872,167,-252,1212,-1768
-669,-2009,47,-221,1095,-2259
-672,-2060,8,-147,949,-2416
-619,-2158,-8,-193,812,-2316
-520,-2214,-37,-217,643,-2010
-443,-2191,-23,-171,459,-1559
-384,-2099,21,-107,307,-1098
-402,-2047,55,-93,241,-798
-407,-2031,83,-71,244,-734
-353,-1946,148,-21,344,-1019
-335,-2051,44,14,516,-1550
-354,-2146,20,50,433,-1723
-331,-2099,49,75,251,-1628
-252,-2080,31,65,239,-1461
-224,-2086,38,41,194,-1126
-182,-2037,19,1,70,-663
-190,-2096,7,-15,-35,-204
-212,-2130,0,-26,-223,207
-184,-2149,-21,-107,-416,501
-127,-2159,-33,-89,-556,701
-140,-2132,10,22,-604,794
-171,-1998,139,68,-408,652
-199,-1880,181,33,82,217
-287,-1963,121,9,387,-223
-353,-2013,110,43,400,-436
-323,-1979,97,28,368,-439
-253,-2011,79,-54,259,-332
-238,-2072,58,-106,144,-183
-241,-2127,21,-129,24,-75
-239,-2191,-18,-111,-89,1
-232,-2259,-41,-76,-178,82
-169,-2245,-44,-25,-224,174
-137,-2201,-6,22,-193,236
-168,-2151,26,64,-156,264
-216,-2050,60,102,-136,286
-266,-1970,102,93,-105,292
-278,-1920,115,47,-65,271
-256,-1920,108,-7,-11,270
-303,-2055,86,-36,-21,313
-336,-2203,41,64,-79,566
-321,-2329,-29,355,-231,1158
-283,-2356,-130,580,-400,1934
-278,-2302,-140,611,-555,2661
-390,-2180,-46,585,-783,3209
-536,-2059,48,513,-1004,3452
-627,-1915,135,489,-1027,3344
-686,-1808,238,456,-948,2973
-705,-1711,316,394,-891,2421
-712,-1638,378,246,-844,1798
-699,-1593,389,27,-646,1162
-677,-1599,387,-170,-347,649
-676,-1646,354,-334,58,254
-752,-1740,257,-416,367,-88
-829,-1824,219,-420,468,-364
-824,-1898,172,-378,524,-565
-777,-1944,123,-346,482,-637
-754,-1951,125,-334,396,-658
-737,-1961,117,-301,393,-754
-723,-2010,87,-248,370,-853
-698,-2054,70,-190,280,-935
-624,-2046,39,-125,233,-873
-661,-2068,35,-138,193,-441
-675,-2031,35,-167,41,-20
-668,-2002,58,-98,-51,210
-669,-1959,102,10,-124,301
-659,-1917,111,26,-160,201
-676,-1924,110,20,-141,59
-685,-1965,88,6,-105,15
-679,-1992,72,-30,-64,52
-690,-2019,57,-48,-65,145
-702,-2025,70,-9,-110,201
-673,-1957,104,31,-116,148
-652,-1893,118,52,-52,58
-673,-1876,133,38,2,-4
-698,-1888,125,5,37,-33
-700,-1903,114,-17,29,-15
-687,-1920,110,-28,2,21
-684,-1928,111,-33,-24,65
-703,-1943,107,-37,-47,87
-707,-1936,110,-28,-67,88
-708,-1928,113,-27,-76,78
-703,-1917,125,-38,-48,44
-708,-1937,112,-48,6,-6
-723,-1940,120,-47,24,-51
-670,-1878,159,-62,160,-188
-604,-1863,163,-92,402,-431
-611,-1896,121,-95,540,-687
-563,-1831,132,-103,539,-988
-457,-1755,149,-166,573,-1628
-499,-1824,146,-271,660,-2362
-765,-2182,150,-388,655,-2879
-761,-2234,26,-204,455,-3149
-493,-2109,-61,-12,211,-2922
-320,-2185,-23,44,153,-2355
-234,-2216,-46,-8,38,-1650
-192,-2183,-74,-70,23,-835
-211,-2152,-46,-68,-7,4
-224,-2115,-8,-94,-153,502
-235,-2168,-30,-73,-303,632
-268,-2174,-56,90,-450,803
-307,-2140,-52,193,-633,1143
-364,-2107,-14,204,-827,1554
-411,-2032,36,192,-876,1876
-470,-1968,111,197,-814,2031
-513,-1886,191,212,-686,1973
-526,-1803,273,217,-422,1681
-553,-1765,286,177,-86,1231
-608,-1839,198,81,58,806
-672,-1952,156,-1,59,532
-648,-2002,101,-63,35,382
-610,-2034,92,-120,17,299
-606,-2109,58,-100,21,250
-614,-2121,38,3,12,309
-618,-2060,51,61,-71,438
-610,-2003,73,99,-145,539
-617,-2040,78,130,-187,621
-627,-2071,56,207,-251,748
-618,-1951,84,251,-339,887
-584,-1773,195,203,-296,802
-568,-1731,217,83,4,441
-531,-1745,245,-22,210,-4
-364,-1569,366,-124,465,-721
-513,-1756,195,-223,813,-1687
-816,-2185,64,-232,641,-2245
-862,-2221,28,-105,369,-2336
-673,-2085,14,-34,250,-2094
-516,-2100,20,-73,221,-1657
-477,-2139,33,-99,196,-1107
-487,-2006,107,-111,239,-622
-477,-1949,115,-125,456,-531
-474,-2032,83,-126,491,-571
-476,-2074,76,-59,384,-509
-415,-2014,71,13,297,-394
-391,-2015,66,-33,218,-168
-420,-2105,27,-155,49,96
-438,-2164,-14,-157,-105,279
-434,-2201,-24,-67,-222,428
-418,-2176,-32,39,-381,637
-440,-2143,-31,131,-533,951
-464,-2053,8,195,-658,1334
-504,-1958,73,200,-721,1621
-545,-1910,135,161,-719,1669
-558,-1878,174,136,-649,1531
-558,-1851,200,130,-538,1277
-564,-1837,220,103,-371,941
-587,-1842,220,49,-193,584
-604,-1864,195,-25,-47,268
-633,-1943,128,-92,58,31
-657,-2025,95,-105,53,-59
-655,-2030,96,-44,0,-30
-639,-2010,92,-27,-29,74
-657,-2074,76,-27,-50,189
-686,-2115,63,29,-116,306
-672,-2024,93,100,-204,424
-665,-1941,125,117,-239,496
-663,-1908,135,95,-241,505
-678,-1881,146,86,-212,515
-682,-1867,165,49,-177,481
-670,-1860,180,3,-165,388
-666,-1855,203,-26,-93,259
-656,-1843,201,-42,12,92
-665,-1808,202,-74,133,-80
-740,-1834,186,-120,288,-272
-742,-1846,166,-147,429,-454
-728,-1914,136,-181,605,-596
-712,-1923,162,-211,606,-625
-640,-1847,266,-238,771,-772
-483,-1825,181,-260,1136,-1263
-463,-1991,12,-225,1139,-1756
-553,-2167,-8,-120,821,-1947
-589,-2184,-12,-29,612,-1890
-556,-2154,-55,6,426,-1668
-488,-2183,-40,2,245,-1350
-462,-2173,-10,20,206,-1069
-444,-2133,-28,48,190,-798
-465,-2126,-4,69,105,-481
-416,-2098,1,89,15,-194
-350,-2068,11,88,-116,87
-340,-2008,51,45,-284,350
-367,-1914,112,-5,-316,360
-401,-1940,86,21,-168,148
-453,-1978,86,69,-174,51
-453,-1958,92,30,-217,88
-424,-1979,71,-57,-226,181
-435,-2079,39,-82,-273,275
-472,-2146,15,-30,-371,378
-485,-2159,-14,30,-515,537
-528,-2252,-38,89,-672,792
-541,-2268,-34,178,-840,1171
-547,-2109,48,262,-953,1543
-560,-1940,132,281,-935,1726
-551,-1850,198,257,-784,1713
-601,-1804,268,222,-604,1557
-617,-1744,302,164,-484,1300
-610,-1712,291,86,-354,1019
-636,-1739,261,-12,-224,743
-658,-1820,221,-120,-96,491
-673,-1880,186,-215,44,269
-679,-1933,131,-272,221,42
-682,-1988,113,-284,333,-213
-631,-2009,121,-276,481,-575
-535,-2014,120,-212,651,-1032
-422,-1901,203,-155,935,-1612
-469,-1946,123,-185,1194,-2211
-621,-2004,57,-194,1045,-2411
-684,-2058,43,-123,762,-2312
-538,-2025,38,-50,530,-2026
-388,-1974,31,-28,370,-1534
-398,-2029,8,-68,282,-900
-492,-2178,-39,-124,231,-231
-533,-2259,-62,-210,125,235
-455,-2326,-106,-159,-54,375
-426,-2352,-101,58,-204,479
-461,-2275,-89,193,-403,748
-520,-2158,-38,236,-639,1138
-538,-2010,42,246,-850,1484
-527,-1908,120,249,-928,1685
-525,-1949,165,257,-884,1775
-515,-1904,191,308,-833,1886
-565,-1774,243,344,-796,1928
-604,-1723,246,298,-690,1763
-612,-1759,208,209,-479,1496
-656,-1847,206,115,-301,1179
-674,-1873,237,6,-92,714
-630,-1835,248,-104,221,74
-515,-1756,281,-213,555,-706
-441,-1750,301,-304,1017,-1556
-577,-1906,186,-366,1358,-2303
-740,-2039,29,-332,1197,-2602
-775,-2097,-5,-228,816,-2415
-643,-2101,-1,-129,518,-2073
-411,-2066,-24,-65,376,-1702
-386,-2098,-52,-108,301,-1004
-511,-2155,-54,-178,188,-127
-552,-2207,-56,-216,33,387
-486,-2254,-64,-67,-177,555
-458,-2193,-39,178,-428,633
-486,-2099,-4,226,-634,727
-544,-2047,36,194,-752,876
-575,-2010,80,161,-817,943
-545,-1953,126,142,-786,886
-506,-1888,174,132,-689,795
-534,-1856,206,121,-584,687
-565,-1854,210,98,-465,523
-563,-1876,191,71,-333,332
-569,-1911,161,42,-212,191
-598,-1963,130,-4,-120,117
-620,-2010,116,-39,-85,89
-658,-2118,78,-18,-98,137
-697,-2262,36,76,-182,351
-686,-2159,31,271,-317,912
-673,-1992,103,422,-501,1528
-670,-1829,129,450,-561,1801
-665,-1758,203,300,-411,1752
-708,-1752,273,210,-249,1514
-771,-1735,316,163,-182,1224
-742,-1689,306,92,-119,872
-678,-1679,307,-63,60,471
-634,-1707,347,-250,309,-35
-650,-1774,251,-362,706,-699
-746,-1942,100,-367,788,-1157
-848,-2085,59,-326,570,-1341
-814,-2098,43,-256,381,-1347
-729,-2065,42,-215,285,-1199
-703,-2079,57,-166,194,-1031
-673,-2035,74,-95,86,-928
-591,-1983,70,-28,17,-875
-617,-1969,64,-2,-32,-479
-681,-1941,92,-53,-107,83
-649,-1958,90,-83,-130,350
-641,-1972,126,47,-177,435
-653,-1924,146,94,-253,364
-659,-1915,132,43,-240,175
-673,-1940,120,-8,-186,71
-692,-1990,104,-37,-139,78
-701,-2032,87,-22,-113,135
-692,-2030,94,-5,-119,184
-688,-1998,107,33,-137,252
-692,-1925,124,80,-128,417
-678,-1877,150,69,-108,646
-675,-1866,173,8,-133,761
-682,-1827,192,-2,-143,739
-701,-1811,205,11,-115,630
-735,-1829,202,-1,-69,469
-747,-1855,181,-45,-33,311
-759,-1907,149,-85,-6,201
-775,-1955,126,-113,2,118
-770,-1979,110,-120,26,6
-742,-1947,150,-103,101,-157
-678,-1872,163,-92,353,-394
-655,-1908,120,-115,561,-623
-742,-1973,106,-111,433,-740
-734,-1962,95,-73,277,-820
-659,-1941,75,-55,194,-814
-642,-1966,62,-41,126,-673
-694,-2015,56,-54,76,-457
-705,-2030,44,-48,-1,-220
-700,-2033,43,-9,-92,17
-651,-2026,52,-1,-125,164
-620,-2007,61,18,-135,203
-668,-1997,78,60,-168,219
-693,-1970,91,95,-180,231
-701,-1918,104,117,-181,344
-716,-1785,130,116,-152,712
-756,-1784,144,2,-117,1146
-811,-1886,160,-106,-150,1318
-821,-1853,171,-44,-205,1230
-796,-1797,193,-20,-161,1025
-820,-1842,194,-30,-70,760
-810,-1879,171,-58,-28,509
-790,-1925,118,-91,-31,308
-788,-1968,107,-123,-33,102
-734,-1972,88,-130,-38,-123
-700,-2006,75,-103,-28,-379
-736,-2022,67,-67,-23,-675
-759,-1990,69,-28,-30,-921
-754,-1946,83,2,-8,-1028
-737,-1928,97,-6,25,-979
-726,-1919,95,-1,11,-800
-712,-1889,109,16,-9,-535
-699,-1869,113,22,-15,-279
-699,-1873,125,27,-10,-88
-718,-1877,136,42,-6,-1
-739,-1887,122,39,1,8
-767,-1915,111,16,11,4
-780,-1949,100,-12,16,20
-766,-1963,94,-27,1,72
-790,-1975,91,-15,-2,178
-800,-1894,95,20,31,404
-810,-1848,121,13,64,857
-838,-1866,119,-18,17,1283
-834,-1828,157,-40,-21,1414
