ax,ay,az,gx,gy,gz
-800,96,1828,-9,-20,4
-794,96,1821,-9,-32,4
-796,99,1831,-10,-36,5
-786,101,1829,-10,-31,3
-788,100,1833,-10,-21,3
-790,97,1827,-9,-7,2
-790,95,1828,-10,6,1
-793,98,1830,-12,16,0
-796,97,1829,-11,20,1
-799,95,1824,-12,16,0
-804,94,1826,-10,8,2
-798,99,1824,-9,-5,3
-797,99,1824,-12,-20,4
-796,98,1826,-11,-32,5
-795,100,1832,-10,-36,6
-792,97,1831,-9,-34,7
-790,97,1832,-9,-28,6
-791,97,1832,-11,-16,5
-789,96,1834,-11,-4,3
-792,96,1828,-10,5,1
-791,98,1826,-12,12,1
-794,99,1831,-12,14,2
-796,100,1833,-11,11,0
-803,96,1825,-10,3,0
-796,96,1827,-11,-4,2
-795,103,1830,-10,-12,4
-802,99,1830,-10,-18,4
-797,99,1826,-9,-21,3
-792,96,1825,-9,-22,4
-790,97,1835,-10,-22,3
-791,95,1829,-11,-20,3
-793,101,1826,-10,-15,3
-786,99,1825,-9,-11,3
-793,96,1835,-12,-4,2
-791,94,1831,-11,1,2
-795,98,1830,-11,4,1
-798,96,1837,-13,8,1
-798,102,1832,-11,8,0
-799,97,1824,-10,4,2
-799,97,1826,-13,-2,3
-800,96,1828,-12,-9,3
-796,96,1825,-10,-16,3
-799,100,1821,-10,-24,4
-793,98,1827,-10,-27,4
-794,97,1833,-9,-28,4
-791,100,1834,-10,-23,4
-791,98,1833,-11,-16,4
-792,101,1832,-11,-8,2
-792,100,1829,-12,1,1
-795,100,1831,-11,7,1
-798,98,1833,-11,9,2
-798,97,1826,-11,9,2
-797,96,1818,-12,3,2
-802,96,1829,-12,-5,2
-798,101,1824,-10,-13,3
-797,97,1828,-9,-18,4
-795,102,1836,-10,-19,4
-791,97,1828,-10,-21,5
-790,100,1826,-9,-20,5
-789,101,1826,-9,-16,4
-793,100,1831,-11,-13,4
-794,98,1830,-11,-12,4
-795,100,1837,-11,-6,2
-790,102,1834,-11,0,3
-789,101,1828,-11,6,3
-793,97,1826,-11,13,1
-800,94,1825,-11,14,1
-800,98,1824,-12,12,0
-799,98,1821,-11,2,1
-804,101,1822,-11,-12,4
-795,97,1826,-10,-27,4
-793,98,1827,-9,-39,7
-792,103,1835,-10,-42,6
-786,101,1838,-10,-40,6
-785,99,1831,-9,-29,6
-786,100,1830,-12,-12,4
-786,100,1831,-10,1,1
-792,103,1834,-12,17,-1
-794,100,1828,-13,24,0
-797,97,1828,-12,24,-1
-799,95,1832,-11,16,2
-802,93,1822,-12,4,1
-801,95,1825,-11,-7,2
-798,98,1824,-7,-19,4
-802,98,1828,-10,-27,3
-797,99,1833,-10,-31,4
-791,98,1835,-11,-31,5
-787,97,1830,-11,-27,6
-789,101,1828,-11,-23,4
-788,101,1835,-12,-13,4
-789,99,1831,-9,-7,3
-791,97,1827,-10,-1,2
-792,102,1830,-13,7,2
-791,102,1829,-10,12,0
-797,101,1830,-10,15,1
-797,99,1827,-11,10,1
-798,95,1830,-11,6,2
-797,98,1823,-10,-5,4
-796,101,1829,-10,-15,3
-800,101,1834,-11,-24,5
-795,98,1822,-8,-30,5
-796,98,1829,-11,-30,5
-789,97,1826,-9,-25,4
-786,92,1825,-10,-17,4
-791,98,1832,-12,-5,2
-791,100,1828,-11,3,2
-795,94,1829,-12,10,2
-793,98,1826,-13,12,1
-801,96,1830,-12,8,1
-794,99,1826,-12,2,3
-798,103,1822,-11,-9,3
-798,99,1829,-11,-17,4
-797,92,1829,-9,-25,3
-796,98,1833,-11,-28,5
-793,103,1832,-12,-26,5
-793,99,1833,-10,-17,3
-790,99,1828,-11,-6,2
-792,99,1828,-11,4,1
-789,98,1824,-13,14,1
-797,97,1829,-12,16,1
-802,99,1834,-11,10,1
-796,94,1825,-12,-1,2
-797,95,1821,-10,-16,4
-802,98,1826,-11,-27,6
-788,99,1829,-10,-37,6
-787,95,1832,-8,-37,5
-791,96,1834,-10,-29,3
-790,101,1838,-9,-17,4
-788,100,1831,-10,1,2
-787,101,1831,-11,13,1
-793,99,1830,-13,21,1
-798,96,1826,-12,22,0
-800,95,1823,-13,14,0
-801,96,1821,-12,5,1
-794,92,1827,-9,-11,3
-802,100,1833,-10,-24,3
-793,99,1825,-11,-32,4
-791,99,1829,-11,-34,5
-791,100,1834,-11,-32,6
-792,99,1836,-10,-25,3
-789,101,1834,-11,-13,4
-788,101,1834,-11,-2,3
-789,101,1834,-11,8,1
-789,103,1831,-11,13,1
-795,102,1831,-12,15,1
-797,98,1828,-12,13,1
-802,103,1834,-11,8,1
-802,101,1827,-10,2,3
-799,100,1825,-10,-11,3
-799,97,1834,-10,-22,3
-798,95,1830,-10,-32,5
-795,96,1823,-9,-40,7
-791,97,1829,-9,-40,7
-788,100,1832,-8,-34,5
-784,103,1830,-10,-18,4
-784,97,1832,-10,-2,2
-794,99,1834,-12,16,1
-796,102,1829,-11,27,0
-797,99,1824,-11,29,0
-801,94,1825,-12,22,0
-797,100,1827,-12,5,1
-800,103,1829,-10,-12,2
-804,95,1825,-10,-29,5
-794,94,1829,-10,-42,4
-792,102,1835,-10,-44,6
-790,99,1833,-9,-35,5
-791,101,1834,-11,-20,3
-788,103,1833,-11,0,0
-794,97,1832,-13,18,0
-802,98,1833,-14,28,1
-797,94,1825,-12,26,-1
-800,97,1823,-13,11,2
-800,98,1820,-10,-9,4
-794,92,1825,-9,-27,4
-798,98,1830,-9,-42,6
-790,100,1830,-9,-49,5
-787,100,1838,-10,-43,6
-782,101,1834,-10,-28,5
-786,98,1838,-10,-8,4
-788,98,1833,-10,13,1
-793,99,1824,-11,29,-1
-797,99,1831,-14,37,-1
-800,100,1824,-13,33,0
-805,98,1816,-13,21,0
-803,97,1824,-11,2,1
-798,100,1824,-9,-21,3
-803,99,1830,-9,-39,5
-796,99,1825,-8,-51,6
-789,93,1833,-9,-52,7
-785,99,1836,-10,-46,7
-782,100,1838,-10,-32,5
-788,100,1837,-11,-12,3
-785,99,1838,-11,7,2
-796,98,1831,-13,26,-1
-795,102,1825,-13,36,-3
-800,97,1826,-12,36,0
-798,98,1827,-12,26,1
-806,99,1824,-12,8,1
-807,99,1823,-11,-12,3
-801,98,1819,-10,-34,5
-796,98,1824,-8,-48,6
-794,101,1830,-9,-54,7
-789,99,1835,-10,-50,6
-782,100,1841,-10,-37,5
-782,100,1832,-10,-20,4
-786,96,1838,-12,4,3
-786,100,1836,-13,20,0
-789,99,1831,-12,31,0
-801,100,1826,-13,33,1
-801,101,1825,-13,25,0
-799,98,1820,-13,13,1
-801,100,1829,-10,-5,3
-801,104,1827,-10,-22,4
-800,97,1821,-10,-35,5
-795,96,1829,-9,-42,6
-789,100,1836,-10,-40,7
-790,102,1840,-10,-32,5
-787,99,1833,-11,-19,3
-787,97,1830,-11,-5,2
-791,98,1832,-11,8,1
-790,102,1831,-11,15,0
-794,95,1832,-13,17,1
-798,96,1827,-12,12,1
-796,103,1826,-10,0,2
-799,98,1825,-11,-9,3
-800,97,1823,-10,-19,4
-796,97,1829,-9,-25,4
-796,98,1831,-9,-26,5
-797,102,1830,-10,-21,3
-795,96,1827,-10,-14,3
-789,96,1837,-9,-7,4
-791,97,1834,-11,2,2
-797,99,1832,-11,7,1
-798,98,1831,-10,10,2
-797,99,1823,-10,8,3
-795,103,1829,-10,0,2
-800,99,1827,-11,-10,3
-802,101,1830,-10,-22,4
-790,98,1828,-10,-29,5
-787,98,1826,-11,-30,4
-786,93,1834,-10,-25,4
-792,97,1832,-9,-14,4
-789,99,1831,-10,-4,2
-789,103,1832,-12,9,2
-797,100,1830,-12,16,1
-798,99,1826,-12,16,1
-800,103,1828,-12,10,2
-797,101,1828,-11,-4,3
-802,101,1828,-11,-16,6
-794,98,1827,-11,-29,5
-794,97,1830,-10,-36,5
-792,98,1835,-11,-34,5
-784,98,1830,-8,-28,4
-789,100,1832,-10,-16,4
-789,101,1833,-10,-1,2
-794,97,1836,-12,14,0
-792,97,1827,-12,20,0
-791,100,1822,-10,21,0
-801,90,1828,-13,16,1
-804,96,1823,-11,3,2
-799,100,1826,-11,-11,4
-801,99,1825,-8,-25,5
-801,98,1829,-9,-35,4
-788,98,1828,-10,-39,5
-785,99,1834,-9,-35,6
-795,100,1839,-10,-21,4
-788,101,1826,-11,-7,2
-787,101,1827,-10,8,1
-793,99,1826,-13,20,1
-796,98,1826,-11,22,0
-805,99,1830,-10,18,-1
-797,97,1829,-10,2,1
-800,96,1828,-11,-13,3
-799,98,1825,-9,-28,4
-794,99,1832,-9,-38,6
-793,100,1831,-11,-38,5
-787,101,1829,-9,-32,5
-790,98,1831,-11,-19,5
-788,101,1836,-11,-4,1
-787,102,1832,-12,12,1
-792,99,1826,-12,22,1
-792,97,1824,-11,22,2
-799,97,1823,-12,16,1
-798,99,1827,-11,4,2
-794,97,1825,-10,-9,3
-798,96,1828,-10,-21,5
-799,99,1829,-11,-29,4
-800,97,1833,-10,-28,5
-794,96,1833,-10,-23,4
-792,97,1829,-11,-15,3
-794,97,1832,-12,-4,3
-798,97,1829,-12,1,2
-796,94,1828,-11,1,3
-796,98,1827,-10,-7,3
-794,94,1829,-11,-15,3
-796,100,1832,-10,-23,4
-792,103,1830,-9,-27,3
-790,94,1835,-10,-22,3
-783,104,1833,-9,-12,3
-792,100,1831,-11,4,2
-796,95,1831,-13,18,1
-793,97,1830,-13,28,-1
-803,97,1822,-13,29,0
-804,91,1821,-11,18,1
-801,96,1829,-12,2,3
-798,94,1824,-11,-22,5
-799,96,1824,-10,-43,5
-790,101,1830,-9,-54,7
-792,102,1837,-8,-55,7
-787,103,1833,-8,-44,6
-785,102,1834,-8,-28,5
-784,102,1832,-10,-8,3
-782,102,1837,-11,8,2
-791,102,1836,-12,18,0
-789,102,1828,-14,23,-1
-789,100,1831,-12,23,1
-800,99,1822,-11,19,1
-799,101,1826,-11,13,0
-802,100,1829,-11,8,0
-800,96,1822,-11,1,1
-800,96,1820,-11,-7,2
-800,98,1825,-10,-12,3
-797,95,1825,-9,-23,5
-802,97,1825,-10,-34,6
-791,97,1829,-10,-46,6
-787,100,1825,-9,-53,7
-788,98,1833,-9,-54,7
-780,96,1838,-11,-43,6
-780,100,1845,-11,-18,4
-778,104,1837,-9,10,1
-789,105,1828,-12,39,0
-792,97,1827,-14,59,-2
-799,95,1821,-13,63,-2
-809,97,1824,-13,50,-3
-805,95,1817,-11,25,0
-814,92,1818,-11,-10,4
-806,97,1826,-9,-48,6
-798,98,1832,-7,-77,10
-789,98,1831,-6,-90,10
-786,98,1837,-8,-84,9
-781,99,1844,-8,-59,6
-777,99,1837,-9,-22,3
-779,97,1838,-13,18,0
-787,101,1834,-14,53,-2
-790,98,1833,-15,73,-4
-802,98,1820,-15,74,-5
-809,100,1817,-12,52,-2
-815,97,1816,-12,19,2
-809,100,1819,-10,-20,4
-805,101,1824,-8,-52,7
-798,98,1830,-8,-73,8
-791,102,1828,-7,-80,8
-784,100,1833,-8,-69,7
-776,97,1835,-8,-47,6
-783,98,1837,-9,-18,5
-789,95,1837,-12,10,1
-788,97,1835,-13,32,-1
-793,100,1829,-13,48,-1
-795,97,1824,-12,48,-3
-803,93,1827,-13,38,-1
-807,98,1820,-14,23,1
-809,97,1823,-13,3,2
-808,99,1823,-11,-20,3
-805,101,1825,-9,-41,6
-796,101,1831,-9,-55,7
-793,101,1827,-9,-61,8
-784,99,1831,-7,-57,8
-779,101,1832,-9,-43,6
-785,99,1833,-11,-22,3
-784,100,1835,-11,2,2
-786,101,1833,-10,23,1
-795,97,1834,-11,39,-1
-799,98,1827,-12,43,-1
-799,98,1823,-13,36,-1
-805,100,1825,-13,21,0
-800,96,1822,-12,-4,2
-799,96,1826,-12,-24,3
-795,95,1826,-9,-40,5
-794,97,1833,-9,-49,6
-791,98,1834,-10,-44,6
-786,99,1830,-9,-36,5
-788,103,1834,-11,-20,3
-788,104,1834,-11,-4,1
-793,98,1834,-13,8,2
-796,98,1824,-11,14,1
-792,98,1827,-12,14,0
-802,100,1830,-12,10,2
-797,101,1826,-10,-1,3
-799,101,1823,-10,-10,3
-797,99,1822,-10,-15,3
-799,102,1827,-10,-18,3
-797,101,1829,-11,-16,3
-792,101,1831,-9,-13,3
-796,97,1831,-11,-7,2
-794,97,1826,-12,-5,3
-795,97,1827,-12,-5,3
-795,99,1830,-12,-5,3
-794,96,1828,-9,-9,2
-796,96,1827,-12,-10,4
-790,99,1828,-9,-14,3
-796,97,1832,-11,-14,2
-795,97,1830,-11,-13,3
-792,99,1827,-11,-12,3
-792,98,1828,-11,-9,3
-793,100,1825,-10,-7,3
-797,101,1827,-12,-5,3
-793,98,1827,-12,-5,1
-793,100,1826,-10,-3,1
-793,102,1829,-11,-3,2
-799,102,1819,-11,-4,3
-798,100,1826,-10,-4,3
-794,98,1827,-10,-8,3
-798,98,1831,-12,-13,2
-801,99,1829,-11,-17,3
-790,98,1824,-10,-18,4
-788,98,1832,-10,-17,3
-791,97,1833,-10,-13,3
-790,101,1833,-11,-6,1
-796,100,1828,-12,1,1
-798,97,1823,-12,5,2
-795,100,1825,-12,5,2
-800,98,1827,-10,-1,2
-798,99,1824,-10,-8,3
-794,102,1829,-10,-16,3
-795,96,1832,-11,-21,4
-792,97,1825,-10,-20,4
-792,97,1823,-11,-15,5
-795,101,1832,-11,-6,5
-796,96,1830,-11,0,2
-799,102,1824,-11,4,1
-798,98,1829,-12,-2,3
-795,97,1825,-11,-14,4
-790,97,1828,-9,-25,5
-788,99,1826,-9,-34,5
-788,98,1829,-9,-29,4
-790,96,1828,-9,-15,3
-788,99,1828,-12,7,2
-792,100,1828,-13,28,0
-803,97,1825,-12,37,0
-806,100,1823,-12,32,-1
-801,94,1820,-11,9,1
-803,94,1823,-10,-20,4
-799,98,1823,-8,-48,6
-789,96,1828,-8,-65,7
-789,99,1833,-8,-63,9
-785,103,1838,-8,-46,6
-783,103,1834,-10,-18,3
-781,102,1832,-12,14,2
-788,98,1829,-13,37,-2
-797,99,1829,-14,48,-2
-801,96,1826,-14,41,-2
-804,93,1822,-13,27,1
-803,94,1814,-12,1,2
-808,97,1822,-10,-20,4
-802,98,1826,-10,-34,5
-800,99,1829,-9,-38,6
-797,100,1832,-10,-33,5
-790,100,1827,-10,-26,4
-788,100,1829,-11,-13,4
-795,97,1830,-11,-8,4
-794,95,1830,-12,-10,3
-791,97,1833,-9,-14,4
-787,100,1828,-10,-21,4
-791,100,1834,-11,-21,3
-790,98,1834,-10,-19,3
-786,99,1833,-11,-9,3
-789,102,1835,-11,4,3
-788,102,1830,-12,17,1
-799,100,1827,-14,25,-1
-799,98,1827,-13,24,-1
-803,96,1827,-12,15,2
-803,94,1824,-12,0,3
-795,96,1821,-10,-17,3
-799,103,1831,-10,-30,4
-796,102,1823,-9,-40,5
-794,100,1824,-11,-38,5
-788,100,1830,-11,-31,5
-792,98,1833,-10,-21,5
-789,99,1832,-10,-9,4
-787,96,1831,-10,1,3
-795,99,1826,-11,7,1
-797,99,1830,-10,7,1
-794,102,1831,-11,6,2
-798,98,1828,-11,2,2
-796,99,1827,-11,0,2
-799,98,1828,-11,-2,1
-794,100,1830,-10,-4,2
-797,101,1827,-10,-8,4
-797,98,1822,-11,-10,5
-795,99,1824,-10,-14,4
-799,99,1829,-12,-19,4
-791,99,1837,-11,-23,5
-793,98,1833,-9,-24,4
-791,97,1831,-10,-22,5
-791,100,1828,-10,-16,3
-793,101,1831,-10,-5,2
-796,100,1829,-11,5,2
-797,101,1829,-13,11,1
-797,101,1831,-13,12,1
-792,96,1825,-12,8,0
-794,94,1823,-10,-3,1
-799,98,1827,-11,-15,2
-795,103,1826,-10,-24,4
-791,96,1829,-10,-29,4
-793,100,1838,-11,-25,4
-787,98,1831,-11,-14,4
-793,95,1829,-12,1,3
-800,97,1834,-12,13,1
-798,95,1830,-12,17,1
-798,95,1834,-12,11,4
-795,98,1830,-11,-6,2
-796,96,1820,-10,-22,5
-790,97,1828,-8,-38,6
-793,99,1834,-8,-43,6
-789,100,1827,-8,-37,5
-785,98,1838,-10,-22,3
-782,102,1832,-12,-1,3
-787,100,1828,-12,16,1
-798,93,1830,-13,25,1
-799,97,1829,-11,20,0
-801,100,1827,-11,7,0
-805,95,1827,-10,-8,2
-800,90,1830,-10,-21,4
-798,94,1832,-10,-23,3
-799,101,1833,-9,-19,4
-798,97,1832,-10,-12,3
-798,98,1829,-12,-5,4
-790,99,1826,-10,-5,3
-795,94,1829,-13,-9,3
-795,96,1828,-11,-16,4
-796,99,1830,-11,-21,5
-790,95,1833,-10,-21,3
-793,98,1834,-9,-16,3
-796,101,1829,-11,-6,3
-793,98,1830,-11,2,1
-792,101,1831,-10,10,0
-794,102,1828,-11,13,2
-800,99,1829,-13,10,2
-800,98,1824,-12,2,2
-797,100,1824,-10,-9,3
-796,97,1827,-10,-20,3
-791,95,1829,-10,-29,5
-792,97,1828,-10,-35,6
-788,97,1832,-11,-33,5
-789,101,1829,-9,-28,4
-790,95,1832,-9,-16,4
-787,97,1835,-10,-5,3
-791,101,1828,-10,10,1
-793,98,1829,-12,23,1
-797,98,1828,-11,29,0
-806,98,1825,-14,28,-1
-800,99,1821,-13,18,1
-800,99,1825,-11,3,2
-799,103,1817,-9,-19,4
-800,99,1822,-10,-40,6
-796,100,1823,-9,-52,8
-783,104,1826,-7,-58,8
-786,105,1834,-10,-47,6
-781,96,1832,-10,-30,4
-784,99,1834,-10,-7,3
-787,100,1834,-12,17,1
-790,98,1831,-12,33,-1
-792,97,1830,-13,41,-1
-802,94,1831,-13,33,0
-805,94,1829,-13,15,1
-799,95,1826,-11,-5,3
-802,99,1822,-10,-25,4
-801,99,1827,-9,-36,5
-794,103,1828,-9,-42,6
-791,98,1831,-10,-37,6
-789,97,1830,-9,-30,5
-788,98,1832,-10,-18,4
-784,100,1832,-11,-8,3
-785,98,1825,-11,0,2
-793,97,1834,-13,6,0
-793,100,1835,-10,10,1
-796,97,1833,-10,12,2
-796,98,1823,-12,13,2
-782,94,1811,-9,11,4
-799,93,1813,-10,30,3
-857,98,1887,-11,-15,-4
-773,89,1809,-12,-56,15
-745,91,1789,-7,-64,7
-829,103,1868,-11,-46,2
-776,105,1837,-4,-68,8
-757,100,1812,-13,-13,5
-799,103,1839,-12,29,-5
-796,99,1832,-12,48,-1
-787,90,1818,-17,75,-2
-801,101,1817,-13,73,-6
-822,98,1828,-12,34,0
-795,94,1809,-10,-15,5
-808,101,1821,-7,-49,6
-810,101,1841,-6,-94,9
-778,95,1824,-5,-103,12
-782,101,1841,-5,-79,8
-785,101,1845,-10,-39,7
-771,95,1830,-11,-2,2
-786,97,1832,-14,50,-2
-796,100,1834,-13,69,-5
-793,96,1823,-14,65,-2
-805,96,1820,-13,50,-3
-817,102,1828,-11,16,-1
-807,98,1818,-11,-24,6
-803,96,1819,-9,-53,7
-798,94,1832,-9,-70,8
-783,96,1824,-9,-72,8
-774,99,1830,-8,-52,6
-785,99,1840,-9,-22,4
-789,102,1834,-11,6,2
-792,99,1832,-12,30,0
-800,97,1829,-14,44,-1
-802,102,1823,-14,43,0
-801,99,1817,-13,30,-1
-806,97,1822,-13,6,0
-803,93,1826,-10,-17,5
-793,92,1826,-9,-41,5
-801,99,1835,-8,-56,7
-791,100,1833,-7,-68,9
-783,100,1831,-8,-63,8
-787,102,1839,-9,-42,5
-776,100,1842,-11,-14,2
-783,100,1835,-12,21,0
-791,101,1831,-12,52,-2
-799,96,1830,-14,67,-4
-810,92,1822,-16,66,-3
-810,98,1819,-13,42,-1
-812,95,1820,-11,3,1
-806,91,1815,-8,-42,6
-800,99,1827,-6,-80,8
-794,97,1835,-5,-98,10
-779,100,1838,-7,-89,9
-782,97,1836,-8,-52,6
-781,102,1841,-11,-5,2
-788,102,1831,-14,44,-2
-791,103,1822,-16,81,-4
-809,103,1826,-15,88,-5
-819,97,1816,-15,66,-3
-817,96,1816,-13,20,2
-810,98,1821,-9,-33,5
-802,97,1829,-7,-83,9
-794,98,1829,-5,-113,12
-783,102,1834,-5,-110,11
-772,103,1841,-7,-75,8
-773,101,1842,-10,-25,4
-777,98,1834,-12,32,-2
-786,101,1837,-14,77,-4
-800,99,1832,-16,90,-4
-808,96,1816,-15,77,-3
-815,97,1813,-13,42,-1
-816,95,1822,-11,-7,4
-805,102,1817,-10,-50,5
-798,101,1821,-8,-75,8
-792,101,1829,-7,-76,9
-785,102,1836,-8,-55,6
-788,107,1842,-10,-23,4
-789,99,1837,-12,9,2
-792,100,1825,-12,33,0
-800,100,1829,-15,38,-2
-805,97,1829,-13,26,1
-799,95,1829,-12,2,3
-799,95,1822,-11,-23,5
-793,97,1826,-8,-45,7
-789,98,1834,-9,-49,7
-785,103,1834,-9,-45,5
-784,100,1830,-9,-27,3
-785,99,1841,-11,-2,2
-788,97,1834,-13,16,1
-791,97,1825,-13,30,0
-796,100,1827,-12,30,-1
-798,97,1829,-13,20,0
-794,96,1824,-10,3,2
-797,99,1814,-10,-12,3
-801,102,1825,-11,-24,3
-792,104,1825,-10,-33,5
-797,103,1832,-10,-33,5
-789,103,1829,-11,-28,5
-790,99,1831,-11,-16,2
-790,99,1832,-11,-2,3
-792,93,1832,-11,2,2
-795,94,1825,-12,3,1
-795,98,1825,-11,-3,2
-796,92,1833,-11,-9,2
-792,90,1830,-12,-13,3
-792,95,1833,-9,-13,2
-792,101,1831,-11,-5,2
-793,95,1825,-12,3,1
-799,103,1826,-12,10,2
-795,101,1823,-12,6,2
-792,98,1822,-10,-8,3
-798,103,1826,-11,-26,5
-793,103,1825,-10,-41,5
-786,107,1831,-10,-37,4
-779,107,1838,-11,-25,3
-796,109,1833,-10,-5,2
-787,102,1821,-11,13,2
-789,96,1828,-11,20,-1
-800,98,1834,-13,16,0
-795,98,1822,-11,4,3
-796,93,1828,-12,-7,3
-807,97,1832,-11,-17,2
-795,98,1829,-9,-24,3
-800,93,1829,-10,-20,4
-793,94,1826,-10,-17,4
-799,92,1827,-10,-11,3
-794,97,1829,-11,-8,3
-793,97,1832,-10,-8,2
-799,101,1827,-12,-2,2
-796,100,1824,-11,-4,2
-795,100,1829,-12,-1,2
-793,107,1830,-12,-3,2
-796,106,1831,-10,-2,2
-798,100,1829,-10,-4,2
-793,101,1831,-11,-9,2
-795,102,1829,-11,-12,4
-791,99,1833,-9,-19,5
-796,97,1826,-11,-20,5
-794,97,1824,-10,-20,4
-793,96,1829,-10,-17,3
-786,97,1829,-11,-11,3
-789,97,1828,-10,-3,1
-794,96,1827,-11,7,1
-789,101,1831,-11,6,2
-787,98,1828,-11,8,2
-798,98,1824,-11,3,2
-799,100,1823,-11,-7,3
-797,97,1822,-10,-13,3
-796,95,1825,-11,-20,4
-796,98,1835,-10,-23,5
-792,105,1826,-10,-25,4
-795,104,1833,-10,-22,4
-787,96,1829,-10,-15,4
-787,100,1831,-10,-8,2
-793,100,1833,-11,0,2
-787,99,1826,-13,6,3
-789,96,1833,-12,8,2
-794,94,1828,-11,8,1
-793,93,1822,-10,2,1
-797,96,1825,-12,-1,3
-799,95,1830,-11,-7,3
-797,95,1827,-11,-12,3
-793,100,1828,-10,-17,4
-790,102,1830,-8,-20,4
-790,103,1827,-10,-20,4
-785,102,1827,-10,-24,4
-793,99,1834,-10,-18,3
-785,97,1833,-10,-14,3
-791,97,1826,-11,-6,1
-793,100,1829,-9,1,1
-791,99,1827,-11,4,2
-798,102,1826,-12,8,2
-794,99,1826,-11,3,2
-797,97,1826,-12,-1,1
-798,100,1827,-9,-6,2
-794,95,1824,-10,-12,2
-793,98,1825,-10,-13,3
-795,99,1823,-10,-16,2
-797,100,1830,-10,-14,4
-792,97,1829,-11,-13,4
-794,98,1824,-9,-14,3
-792,98,1831,-9,-12,4
-793,98,1831,-9,-13,4
-796,98,1832,-11,-10,4
-790,99,1827,-11,-9,3
-791,99,1832,-11,-4,1
-797,100,1829,-12,-1,2
-796,100,1828,-12,-1,2
-798,102,1826,-11,-1,3
-795,99,1825,-11,-5,3
-792,98,1827,-12,-9,2
-795,97,1829,-11,-13,3
-791,94,1833,-12,-17,5
-791,95,1828,-11,-16,4
-788,99,1829,-10,-13,4
-795,99,1831,-11,-6,2
-789,99,1826,-10,0,2
-794,97,1830,-12,3,2
-800,101,1832,-12,4,3
-794,100,1821,-11,-1,4
-800,97,1825,-12,-8,2
-792,97,1826,-11,-17,3
-792,98,1834,-10,-22,4
-792,99,1828,-11,-22,4
-788,100,1825,-10,-21,4
-793,96,1827,-10,-13,3
-784,92,1825,-10,-7,3
-793,96,1824,-11,-2,2
-794,101,1832,-13,0,0
-793,98,1833,-11,1,3
-793,96,1831,-11,0,3
-796,97,1825,-10,-6,2
-795,98,1828,-12,-10,1
-790,99,1824,-11,-14,2
-795,97,1825,-10,-15,3
-795,102,1829,-10,-13,3
-795,102,1834,-11,-10,2
-794,101,1832,-11,-5,3
-793,99,1829,-10,-5,2
-795,97,1829,-12,-5,1
-795,102,1828,-10,-7,1
-794,100,1825,-10,-11,2
-794,96,1832,-12,-13,4
-791,94,1828,-10,-15,5
-791,96,1830,-10,-13,4
-794,94,1832,-11,-11,2
-788,95,1831,-11,-8,2
-794,95,1829,-10,-3,2
-796,98,1831,-10,-1,3
-799,95,1827,-11,1,4
-799,99,1827,-12,1,2
-797,97,1824,-13,-2,2
-794,94,1826,-12,-9,4
-793,101,1828,-10,-14,4
-801,100,1831,-12,-16,4
-794,100,1823,-11,-21,3
-796,101,1825,-12,-18,4
-791,99,1829,-9,-14,3
-789,103,1835,-11,-7,4
-795,100,1826,-12,0,4
-793,95,1826,-10,3,2
-795,95,1834,-11,3,0
-791,99,1818,-11,-1,1
-795,100,1824,-11,-6,1
-794,96,1825,-11,-10,2
-794,98,1824,-11,-16,3
-796,97,1829,-10,-16,4
-793,99,1827,-10,-19,4
-791,98,1831,-11,-17,4
-795,102,1829,-10,-13,3
-798,102,1832,-10,-8,3
-791,98,1825,-11,-4,3
-790,97,1826,-11,-2,2
-794,98,1833,-12,2,2
-796,98,1829,-10,1,1
-805,100,1828,-11,1,1
-804,101,1825,-10,-3,3
-798,99,1825,-10,-7,4
-802,99,1827,-12,-11,4
-790,97,1828,-11,-15,4
-796,96,1831,-12,-17,5
-790,99,1829,-10,-19,5
-794,98,1827,-9,-18,5
-796,96,1834,-10,-12,3
-789,97,1830,-9,-9,2
-791,99,1827,-12,-3,3
-790,97,1824,-12,-3,3
-796,101,1826,-11,-1,2
-794,101,1822,-11,0,2
-792,96,1825,-11,-4,2
-804,97,1833,-12,-7,2
-792,98,1826,-10,-10,3
-799,102,1830,-11,-12,4
-795,100,1825,-10,-17,3
-794,103,1833,-10,-19,4
-794,102,1832,-12,-18,3
-792,97,1826,-10,-15,4
-793,92,1830,-10,-8,2
-787,96,1834,-11,-1,2
-792,99,1835,-11,7,2
-796,97,1826,-12,10,2
-797,95,1826,-11,8,2
-795,100,1827,-12,2,2
-795,99,1825,-11,-10,4
-799,101,1835,-11,-19,3
-792,97,1835,-10,-25,4
-791,97,1829,-11,-28,4
-793,97,1832,-11,-26,4
-790,100,1828,-9,-22,4
-787,101,1831,-10,-14,4
-789,103,1830,-11,-6,3
-792,102,1826,-10,0,2
-794,100,1827,-12,6,2
-794,99,1830,-11,9,0
-801,101,1829,-12,12,1
-794,97,1823,-12,10,2
-799,94,1823,-11,4,2
-798,96,1828,-11,-3,2
-798,97,1823,-11,-15,2
-799,98,1826,-11,-23,4
-788,101,1829,-9,-33,6
-790,100,1832,-9,-36,5
-787,98,1833,-10,-33,5
-785,95,1839,-10,-25,4
-786,98,1835,-10,-12,3
-788,101,1833,-9,-1,3
-792,96,1834,-12,11,1
-788,101,1828,-12,17,0
-797,101,1831,-11,18,1
-799,103,1828,-13,17,2
-794,100,1825,-11,6,2
-801,94,1823,-11,-4,2
-799,99,1822,-10,-18,2
-797,97,1825,-10,-28,5
-792,100,1828,-10,-32,5
-791,104,1834,-9,-33,5
-795,100,1835,-12,-26,4
-786,99,1830,-10,-18,3
-793,99,1830,-11,-4,3
-790,97,1828,-14,8,2
-791,97,1830,-12,12,1
-800,101,1830,-12,15,1
-795,100,1827,-11,9,1
-800,100,1829,-12,2,2
-796,102,1824,-10,-9,3
-803,100,1827,-11,-17,4
-797,100,1826,-10,-24,5
-791,98,1831,-9,-26,4
-795,100,1831,-10,-21,5
-790,101,1828,-11,-18,5
-796,100,1830,-11,-9,3
-793,97,1836,-12,-4,3
-793,95,1831,-12,-1,2
-790,96,1828,-10,2,2
-794,98,1828,-12,-2,3
-797,96,1825,-12,-3,3
-792,99,1826,-8,-7,3
-794,95,1830,-10,-10,2
-794,96,1830,-11,-10,3
-788,101,1828,-10,-12,3
-792,103,1825,-11,-8,2
-794,100,1833,-9,-10,3
-796,97,1830,-10,-9,4
-793,100,1826,-10,-7,3
-791,102,1828,-11,-7,2
-794,101,1832,-11,-7,2
-794,99,1829,-10,-8,2
-794,100,1826,-12,-6,3
-786,103,1826,-11,-9,3
-799,101,1830,-10,-11,3
-799,101,1830,-12,-9,3
-792,100,1827,-9,-11,3
-797,97,1827,-10,-8,5
-796,103,1827,-12,-7,3
-797,98,1828,-11,-6,2
-793,101,1828,-11,-6,3
-789,102,1830,-11,-8,3
-795,98,1831,-11,-8,3
-788,99,1825,-9,-12,3
-792,101,1827,-11,-8,2
-798,103,1830,-11,-6,3
-794,100,1826,-11,-5,3
-795,98,1834,-10,-6,3
-790,99,1825,-11,-10,3
-799,98,1828,-11,-13,4
-793,100,1831,-10,-20,4
-792,98,1828,-10,-19,2
-790,97,1829,-10,-13,3
-793,103,1834,-10,-8,3
-796,103,1832,-11,0,2
-792,102,1828,-10,4,2
-802,98,1825,-12,7,2
-796,101,1827,-11,3,2
-795,102,1826,-10,-3,2
-803,99,1831,-11,-9,3
-799,102,1829,-11,-17,4
-801,101,1830,-11,-20,4
-791,103,1825,-9,-22,4
-797,99,1832,-11,-21,4
-793,98,1833,-11,-16,4
-787,97,1832,-11,-11,3
-793,97,1828,-12,-5,2
-790,101,1825,-10,-1,2
-796,100,1833,-12,0,2
-802,103,1831,-12,-2,2
-793,93,1826,-12,-2,4
-799,95,1829,-11,-1,2
-794,96,1831,-10,-2,1
-801,93,1833,-11,-3,2
-796,98,1831,-10,-7,2
-793,99,1832,-9,-10,3
-797,99,1831,-10,-15,4
-794,100,1824,-9,-20,5
-789,98,1831,-10,-21,4
-788,99,1827,-9,-23,4
-790,98,1831,-11,-18,4
-788,93,1832,-11,-13,4
-789,97,1830,-10,-9,2
-793,104,1827,-11,0,2
-795,103,1828,-12,4,2
-799,99,1825,-12,7,1
-795,101,1829,-11,8,2
-802,102,1835,-9,4,1
-798,99,1825,-9,-2,2
-794,99,1827,-10,-9,3
-799,100,1826,-11,-14,3
-795,101,1823,-10,-23,5
-797,98,1829,-11,-25,5
-794,96,1833,-9,-23,4
-791,103,1832,-9,-19,3
-792,96,1831,-11,-11,3
-789,99,1826,-11,-6,3
-793,101,1831,-12,3,2
-790,97,1833,-11,5,2
-795,100,1829,-10,4,2
-799,100,1827,-12,4,2
-800,98,1828,-11,-3,2
-802,98,1824,-11,-6,2
-792,100,1826,-10,-13,4
-795,95,1826,-10,-18,3
-797,100,1827,-11,-16,4
