ax,ay,az,gx,gy,gz
2,-2084,-470,14,44,73
-10,-2080,-408,30,-12,90
-13,-2058,-374,32,-15,84
-6,-2051,-349,22,-9,75
-16,-2053,-334,9,-3,57
-17,-2053,-331,-5,5,32
-12,-2047,-340,-25,2,17
-8,-2039,-330,-40,-1,2
17,-2029,-338,-55,20,-16
30,-2028,-374,-77,23,-29
36,-2047,-401,-91,22,-34
57,-2061,-432,-100,32,-41
75,-2073,-468,-93,23,-40
94,-2075,-472,-72,2,-24
107,-2082,-473,-56,-11,-7
111,-2076,-477,-39,-28,16
91,-2096,-472,-20,-38,53
59,-2093,-471,-5,-32,72
35,-2081,-453,10,-18,64
26,-2081,-439,9,-8,56
13,-2094,-440,5,-13,48
8,-2090,-424,9,-18,39
21,-2061,-387,13,-25,36
31,-2045,-356,7,-22,33
32,-2036,-353,-15,-17,20
43,-2044,-363,-41,-7,-1
58,-2050,-385,-55,-1,-17
65,-2047,-399,-61,-4,-17
69,-2045,-412,-67,-4,-10
83,-2047,-430,-72,-11,-3
94,-2060,-448,-73,-18,7
92,-2063,-457,-67,-21,11
86,-2067,-459,-55,-22,19
77,-2070,-470,-48,-26,36
77,-2072,-465,-36,-33,51
73,-2062,-435,-29,-27,63
38,-2077,-447,-37,-27,71
18,-2107,-474,-41,-29,69
6,-2118,-477,-28,-26,62
-13,-2117,-485,-13,-23,54
-31,-2118,-476,0,-19,43
-31,-2114,-463,16,-16,26
-30,-2086,-450,23,-11,8
-27,-2071,-419,20,-15,-9
2,-2052,-406,6,-16,-20
27,-2049,-415,-15,-3,-26
30,-2057,-440,-23,-2,-24
38,-2056,-443,-16,-16,-20
51,-2043,-422,-2,-28,-16
75,-2029,-411,-1,-35,-4
82,-2032,-405,-11,-28,15
68,-2039,-428,-18,-18,20
59,-2052,-437,-23,-11,13
55,-2046,-433,-21,-10,10
52,-2042,-425,-20,-12,10
47,-2042,-415,-25,-18,12
45,-2029,-400,-25,-18,12
43,-2017,-381,-35,-20,12
44,-2024,-392,-60,-15,11
46,-2041,-416,-80,-3,5
44,-2057,-444,-84,-2,1
40,-2069,-464,-74,-10,3
38,-2071,-471,-66,-20,15
35,-2083,-483,-56,-22,28
20,-2092,-488,-50,-25,38
10,-2094,-491,-42,-20,36
12,-2094,-491,-30,-16,32
8,-2091,-486,-14,-23,32
9,-2081,-473,0,-26,36
5,-2077,-463,7,-23,38
5,-2066,-435,18,-27,38
11,-2038,-398,22,-22,31
10,-2017,-365,8,-22,25
11,-2015,-363,-15,-21,21
32,-2021,-380,-37,-11,16
41,-2033,-406,-53,-15,16
44,-2040,-421,-56,-25,17
52,-2045,-430,-57,-28,17
50,-2057,-444,-58,-26,17
55,-2066,-462,-58,-16,16
55,-2073,-478,-56,-13,20
43,-2087,-494,-52,-15,23
37,-2099,-496,-47,-7,22
29,-2101,-504,-32,-6,25
19,-2096,-486,-16,-15,34
3,-2090,-459,-5,-25,42
-6,-2076,-440,1,-29,34
-7,-2069,-415,0,-23,22
-11,-2067,-415,-13,-17,12
0,-2062,-416,-24,-18,-3
12,-2059,-415,-32,-16,-14
24,-2056,-436,-40,-16,-15
32,-2058,-441,-45,-19,-9
28,-2055,-450,-45,-24,-4
26,-2058,-463,-39,-22,-8
34,-2054,-461,-31,-22,-7
31,-2057,-465,-23,-28,5
19,-2057,-462,-10,-37,18
4,-2045,-433,-1,-44,27
-19,-2036,-411,-3,-41,31
-24,-2028,-401,-17,-34,24
-19,-2040,-423,-34,-25,12
-3,-2048,-438,-44,-19,-1
8,-2051,-450,-43,-23,3
-2,-2060,-461,-38,-45,21
-4,-2071,-465,-28,-68,36
-12,-2064,-455,-14,-73,37
5,-2040,-434,-9,-69,27
20,-2027,-418,-21,-53,14
45,-2022,-424,-52,-6,-2
44,-2049,-460,-75,17,-13
62,-2059,-488,-74,-25,-6
80,-2063,-489,-62,-35,1
75,-2052,-474,-48,-31,12
44,-2039,-470,-47,-28,24
27,-2041,-460,-49,-28,24
14,-2027,-434,-45,-15,9
12,-2003,-406,-48,-20,-2
24,-1980,-365,-62,-36,-3
31,-1954,-336,-91,-27,-11
40,-1951,-341,-135,-19,-19
48,-1947,-353,-180,1,-31
51,-1947,-367,-218,7,-40
67,-1956,-412,-258,-7,-42
81,-1984,-479,-289,7,-39
83,-2032,-545,-299,17,-31
81,-2058,-598,-288,18,-39
86,-2076,-639,-270,16,-43
106,-2104,-679,-251,22,-32
100,-2123,-718,-210,18,-4
66,-2143,-728,-161,12,40
46,-2157,-721,-116,15,72
36,-2144,-692,-65,23,80
19,-2130,-653,-28,28,86
12,-2127,-614,-9,40,86
4,-2114,-575,5,53,84
-28,-2110,-550,15,62,85
-45,-2113,-534,23,54,89
-40,-2100,-498,36,40,92
-41,-2072,-449,38,38,84
-42,-2058,-436,18,50,61
-44,-2060,-444,-8,54,36
-33,-2039,-427,-22,48,14
-24,-2021,-415,-38,51,-9
-3,-2002,-412,-63,53,-29
16,-1994,-429,-96,53,-49
46,-2013,-470,-133,59,-71
79,-2029,-536,-149,68,-84
99,-2045,-565,-142,72,-81
89,-2053,-591,-121,80,-68
72,-2046,-578,-94,68,-54
39,-2026,-554,-80,58,-40
18,-2025,-559,-84,61,-31
22,-2036,-576,-91,75,-32
23,-2041,-592,-94,101,-29
6,-2066,-619,-95,100,-21
10,-2084,-639,-79,84,-8
19,-2074,-628,-52,73,9
10,-2079,-610,-25,64,30
9,-2070,-604,-5,62,39
17,-2066,-597,13,62,41
-2,-2066,-585,32,68,40
-29,-2049,-556,51,67,39
-29,-2032,-519,62,60,41
-28,-2013,-479,58,57,41
-25,-1997,-453,45,48,31
2,-1989,-430,20,46,15
22,-1987,-437,-9,47,3
30,-1999,-464,-26,39,1
18,-2010,-486,-36,33,0
17,-2022,-505,-42,28,-1
27,-2034,-519,-42,20,-3
37,-2033,-523,-39,21,-5
39,-2033,-533,-35,11,-2
31,-2047,-537,-29,-4,0
20,-2053,-542,-18,-6,-9
6,-2026,-542,-7,-2,-3
9,-2034,-520,-5,-11,26
28,-2027,-503,-12,-18,45
30,-2040,-514,-24,-16,58
34,-2019,-539,-36,-13,67
46,-2039,-544,-49,-26,106
72,-2046,-572,-52,-14,117
58,-2046,-566,-37,36,99
17,-2042,-562,-30,76,91
-11,-2049,-556,-26,64,90
-11,-2059,-549,-22,41,75
2,-2056,-557,-13,17,66
8,-2056,-552,-6,5,66
12,-2052,-546,-6,16,56
13,-2036,-537,-9,19,45
-2,-2047,-534,-15,18,45
-9,-2044,-536,-21,11,33
9,-2052,-549,-26,23,13
9,-2058,-550,-24,21,13
5,-2058,-549,-29,20,20
-7,-2056,-545,-29,12,21
0,-2048,-541,-25,-7,18
12,-2051,-559,-25,-1,16
21,-2055,-577,-28,5,17
27,-2054,-582,-26,7,18
39,-2086,-600,-21,26,-18
-21,-2019,-573,8,30,-58
-14,-2008,-536,-12,-34,30
7,-2039,-549,-30,-44,50
5,-2036,-571,-31,5,11
-13,-2048,-589,-29,41,0
3,-2048,-589,-21,23,-24
18,-2039,-587,-12,29,-34
2,-2037,-585,-5,16,0
7,-2051,-589,8,2,25
20,-2035,-563,26,8,18
24,-2009,-539,28,17,12
16,-2012,-541,18,12,19
7,-2036,-549,17,7,26
3,-2022,-541,26,0,31
5,-2013,-532,23,-16,42
7,-2018,-526,17,-28,48
-3,-2018,-519,13,-16,39
-12,-2025,-534,4,18,17
-3,-2036,-547,-3,27,1
16,-2035,-543,9,22,-9
37,-2013,-539,11,17,-4
23,-2015,-523,17,1,11
22,-1966,-495,23,-10,16
28,-1929,-452,11,-8,18
24,-1918,-434,-26,1,21
35,-1921,-456,-79,36,8
43,-1968,-490,-125,67,-12
53,-1976,-544,-159,107,-36
41,-2041,-609,-177,113,-41
27,-2063,-651,-153,102,-40
27,-2056,-649,-113,80,-32
38,-2059,-639,-84,46,-10
29,-2060,-624,-65,35,11
5,-2056,-602,-51,20,21
-8,-2052,-576,-50,9,26
-16,-2051,-557,-59,15,29
-38,-2055,-537,-67,14,31
-66,-2057,-527,-79,23,23
-74,-2070,-538,-95,30,6
-47,-2091,-559,-106,28,-9
-8,-2092,-572,-101,31,-20
16,-2090,-571,-88,37,-23
6,-2083,-563,-73,30,-13
0,-2078,-549,-62,16,-6
-1,-2059,-543,-59,4,-10
20,-2047,-538,-61,-3,-10
40,-2034,-540,-68,5,-8
55,-2015,-565,-74,22,-17
58,-2020,-589,-79,29,-23
60,-2034,-619,-72,45,-27
48,-2026,-627,-57,58,-29
34,-2026,-622,-42,51,-22
23,-2037,-638,-24,53,-14
25,-2035,-632,4,31,-3
13,-2019,-596,29,3,20
-4,-2010,-559,28,1,32
-22,-2016,-555,7,4,24
-22,-2041,-576,-11,15,10
-20,-2059,-607,-14,32,2
-21,-2069,-620,-5,19,2
-22,-2064,-619,12,10,13
-21,-2062,-615,29,0,25
-35,-2061,-601,44,-1,24
-39,-2049,-577,49,3,11
-26,-2047,-564,45,0,3
-12,-2044,-559,38,-6,4
-20,-2035,-553,33,-10,5
-16,-2035,-555,28,-21,3
0,-2038,-548,27,-34,7
3,-2032,-549,21,-35,9
11,-2036,-563,10,-29,-3
29,-2042,-584,4,-25,-18
44,-2048,-596,8,-18,-21
39,-2035,-594,15,-23,-16
38,-2037,-593,17,-26,-11
47,-2026,-582,20,-25,-7
56,-2017,-564,23,-26,-4
66,-2008,-559,14,-16,-6
66,-2013,-569,0,-2,-12
57,-2028,-581,-9,14,-16
43,-2028,-586,-7,15,-16
29,-2038,-590,-4,0,-4
30,-2039,-590,7,-19,12
14,-2036,-572,17,-22,30
0,-2034,-565,13,-21,37
13,-2036,-562,5,-13,42
4,-2054,-565,3,-11,39
-16,-2037,-559,14,-5,15
-15,-2020,-544,19,-14,5
9,-2000,-520,12,-24,12
21,-1990,-515,-4,-9,13
21,-2006,-538,-27,8,10
20,-2027,-573,-32,15,-9
22,-2034,-594,-17,9,-25
23,-2018,-571,2,-10,-19
15,-2000,-540,9,-26,4
12,-1990,-517,5,-37,19
9,-1976,-500,-13,-24,13
13,-1984,-507,-40,-10,0
8,-1996,-536,-57,-3,-8
13,-2011,-553,-61,-5,-5
24,-2018,-561,-59,-10,9
34,-2017,-572,-56,-8,16
29,-2028,-580,-58,2,13
16,-2057,-616,-56,3,8
9,-2079,-641,-38,2,4
8,-2070,-633,-15,-6,8
6,-2070,-609,1,-17,21
-2,-2068,-595,10,-22,28
-9,-2066,-579,16,-31,26
-5,-2057,-560,19,-40,20
-6,-2034,-538,16,-34,12
-12,-2033,-544,1,-23,6
-3,-2049,-550,-8,-18,-6
8,-2043,-558,-12,-8,-19
12,-2048,-581,-18,-11,-19
31,-2049,-592,-12,-22,-12
40,-2037,-591,0,-28,-3
40,-2027,-578,9,-31,3
27,-2013,-566,9,-32,7
18,-2018,-571,5,-33,10
17,-2014,-579,7,-43,20
14,-1998,-564,12,-44,24
17,-1992,-550,-3,-37,25
-4,-2010,-562,-8,-25,15
-11,-1985,-560,-17,-8,-12
4,-2003,-582,-36,-3,-14
3,-2004,-569,-33,-23,8
-14,-2004,-551,-27,-33,13
-5,-1986,-535,-30,-37,-2
15,-1985,-546,-51,-30,-12
23,-1997,-564,-68,-23,-18
28,-2003,-593,-75,-16,-27
44,-2020,-634,-72,-8,-31
69,-2024,-633,-53,-12,-20
61,-2024,-626,-29,-5,-5
52,-2027,-613,-15,0,-3
56,-2014,-588,-10,-2,4
48,-2018,-585,-10,-2,21
43,-2028,-595,-11,-1,25
41,-2038,-596,-3,-1,28
23,-2046,-587,10,-6,47
2,-2051,-577,20,-11,56
-4,-2049,-558,29,-18,51
-8,-2043,-542,29,-13,47
-9,-2033,-529,19,0,37
-10,-2031,-533,9,7,27
-17,-2041,-553,3,3,30
-12,-2048,-556,4,-13,30
-11,-2041,-550,13,-13,27
-10,-2040,-550,14,-13,20
-9,-2052,-557,5,-15,12
-7,-2058,-578,-3,-9,2
5,-2064,-598,-4,-13,1
10,-2061,-617,3,-14,2
4,-2052,-616,19,-25,9
-1,-2055,-598,40,-40,25
-2,-2031,-554,60,-52,31
-18,-2006,-511,64,-55,30
-31,-1999,-483,46,-48,29
-23,-2012,-491,14,-38,20
-14,-2026,-522,-6,-32,4
-2,-2033,-546,-13,-24,-6
-2,-2048,-577,-6,-19,-11
-3,-2043,-565,14,-24,-14
-9,-2018,-536,29,-22,-21
-1,-2013,-519,28,-15,-29
1,-2020,-503,23,-15,-26
-32,-2021,-494,20,-21,-27
-68,-2015,-499,18,-37,-32
-65,-2012,-506,14,-64,-16
-73,-2010,-517,9,-88,3
-102,-2015,-544,15,-94,4
-133,-2001,-555,38,-107,-9
-138,-1967,-526,62,-78,-51
-110,-1910,-475,49,-4,-122
-11,-1941,-495,-24,70,-172
56,-1979,-601,-83,143,-212
162,-1991,-688,-112,134,-231
266,-2077,-747,-103,145,-158
270,-2079,-742,-55,98,-86
246,-2067,-717,3,71,-32
235,-2069,-693,56,-6,69
191,-2068,-638,105,-63,158
121,-2059,-611,127,-41,182
36,-2064,-600,125,-6,174
-26,-2088,-588,123,12,158
-64,-2085,-563,127,15,137
-68,-2065,-520,129,-9,130
-78,-2049,-469,125,-50,140
-100,-2027,-440,120,-82,146
-130,-2010,-392,105,-110,138
-140,-1989,-370,73,-120,109
-120,-1984,-374,31,-103,59
-72,-1963,-384,-15,-72,2
-11,-1968,-427,-73,-38,-38
55,-2005,-499,-122,-8,-58
99,-2020,-552,-136,-5,-51
141,-2026,-585,-140,-32,-24
155,-2058,-601,-108,-39,20
112,-2049,-589,-71,-36,51
82,-2061,-590,-62,-60,71
42,-2090,-595,-42,-66,91
0,-2105,-589,-23,-56,107
-41,-2118,-579,-12,-58,110
-65,-2131,-581,2,-58,102
-76,-2143,-583,19,-44,79
-71,-2145,-564,34,-36,64
-70,-2129,-524,39,-42,60
-86,-2100,-495,34,-31,40
-97,-2086,-496,16,-22,8
-101,-2088,-514,-7,-15,-17
-88,-2078,-537,-24,-13,-47
-35,-2065,-560,-35,-3,-79
21,-2052,-578,-42,0,-87
42,-2042,-586,-41,-7,-73
53,-2048,-602,-36,-20,-53
71,-2046,-609,-23,-27,-41
87,-2028,-602,-3,-16,-36
75,-2014,-604,8,-3,-28
63,-2025,-623,18,9,-18
63,-2036,-627,40,19,-7
60,-2011,-588,62,18,13
35,-2002,-551,62,12,45
16,-2009,-537,48,11,62
4,-2018,-554,38,25,55
-4,-2036,-574,30,37,49
4,-2029,-569,39,40,45
1,-2030,-578,49,48,42
-1,-2042,-582,61,50,41
-24,-2033,-545,84,48,46
-39,-2012,-495,92,35,46
-47,-2000,-459,81,22,44
-67,-1994,-431,64,13,45
-82,-1992,-426,36,13,38
-77,-2002,-436,3,17,27
-50,-2011,-468,-25,28,14
-34,-2031,-519,-39,38,5
-28,-2054,-554,-34,31,8
-19,-2066,-576,-18,19,16
-11,-2069,-584,0,16,21
1,-2063,-574,19,9,29
-12,-2054,-559,38,-4,42
-19,-2040,-524,46,-3,44
-21,-2024,-503,43,6,35
-9,-2017,-488,29,8,27
7,-2030,-497,7,27,15
9,-2039,-513,-1,34,3
-7,-2048,-516,1,29,10
-19,-2049,-517,5,19,23
-20,-2045,-504,5,12,32
-25,-2033,-469,1,18,34
-42,-2041,-473,-13,27,32
-51,-2046,-497,-31,23,28
-57,-2091,-515,-43,6,55
-88,-2103,-514,-23,-27,60
-55,-2070,-506,-18,-16,11
-33,-2078,-524,-33,13,-12
-45,-2088,-534,-37,16,-9
-34,-2087,-550,-33,19,-33
-10,-2081,-563,-11,7,-41
-1,-2066,-546,16,-16,-13
-16,-2043,-498,29,-29,3
-14,-2015,-470,22,-15,-10
-10,-2021,-475,-2,-2,-12
-6,-2039,-497,-24,6,-16
-10,-2053,-533,-27,20,-37
-11,-2063,-555,-15,15,-31
-7,-2054,-548,6,-8,-3
-8,-2041,-524,20,-20,16
-20,-2036,-509,23,-16,27
-28,-2039,-504,22,-6,21
-29,-2032,-503,14,6,1
-19,-2037,-502,5,7,-10
-7,-2029,-494,5,-1,3
-14,-2026,-493,9,-18,25
-24,-2032,-487,10,-33,38
-31,-2035,-486,5,-30,33
-39,-2035,-486,-5,-14,13
-52,-2050,-508,-16,-2,-4
-48,-2064,-522,-17,-6,-13
-37,-2054,-525,-9,-9,-17
-20,-2041,-521,-5,-15,-15
-6,-2033,-497,-9,-20,-11
-7,-2032,-496,-24,-9,-7
-13,-2058,-522,-35,-9,-4
-10,-2065,-528,-27,-19,2
-2,-2051,-511,-13,-34,13
3,-2036,-502,-15,-49,31
5,-2028,-496,-18,-48,37
-5,-2023,-496,-30,-39,32
-14,-2036,-501,-47,-29,26
-21,-2048,-513,-65,-19,10
-15,-2052,-540,-72,-27,2
-9,-2068,-560,-73,-35,3
11,-2082,-590,-65,-25,-8
28,-2082,-605,-48,-8,-21
14,-2080,-596,-29,-5,-14
1,-2072,-575,-9,-14,-10
-3,-2060,-551,2,-17,-13
-9,-2049,-534,2,-14,-10
-13,-2040,-525,-4,-4,-14
-12,-2037,-521,-12,3,-25
-8,-2035,-522,-20,9,-29
-9,-2035,-530,-21,11,-25
-10,-2036,-530,-17,13,-22
-8,-2026,-524,-14,8,-22
-7,-2029,-530,-14,8,-20
-16,-2044,-548,-16,11,-9
-19,-2050,-553,-10,5,-4
-14,-2042,-539,2,3,-10
-11,-2022,-522,10,4,-9
-5,-2017,-507,7,11,-4
-5,-2018,-503,-1,13,-4
1,-2017,-510,-8,22,-9
-9,-2028,-526,-6,29,-6
-12,-2035,-523,-1,12,3
-5,-2025,-513,5,11,4
-13,-2023,-521,6,17,4
-32,-2035,-516,9,10,14
-43,-2035,-509,12,1,18
-31,-2024,-494,9,-4,14
-23,-2026,-498,4,-5,11
-25,-2029,-494,0,0,6
-19,-2024,-482,-6,5,-5
-11,-2025,-475,-15,1,-4
-16,-2037,-484,-27,-6,7
-25,-2042,-493,-33,-17,9
-28,-2050,-513,-33,-25,3
-30,-2048,-522,-30,-22,-6
-35,-2045,-534,-33,-5,-17
-24,-2048,-543,-36,-4,-23
-10,-2048,-545,-30,-9,-23
-6,-2050,-551,-23,-6,-17
1,-2049,-556,-16,-20,-7
3,-2048,-555,-8,-23,2
9,-2048,-554,0,-20,5
12,-2039,-546,9,-8,7
10,-2035,-533,9,8,6
0,-2031,-535,1,21,4
-1,-2033,-524,-3,19,5
12,-2038,-523,-4,12,17
8,-2044,-532,1,5,37
-9,-2049,-532,13,-9,55
-25,-2047,-508,25,-18,59
-24,-2025,-479,27,-8,46
-31,-2021,-473,7,0,33
-39,-2046,-498,-12,5,19
-39,-2055,-516,-15,12,1
-21,-2047,-517,-11,8,-7
-7,-2037,-503,-9,-1,-4
-17,-2031,-504,-11,-1,-1
-26,-2047,-523,-17,0,-2
-8,-2050,-528,-19,-6,-1
0,-2040,-518,-12,-12,-4
-10,-2024,-504,-9,-13,-1
-32,-2038,-525,-19,-4,1
-25,-2062,-544,-24,0,-3
-3,-2053,-540,-17,1,-5
-2,-2032,-525,-15,2,-4
-15,-2044,-535,-21,-6,2
-21,-2068,-559,-16,-7,6
-11,-2057,-553,8,-4,10
-1,-2035,-510,21,-6,19
-3,-2023,-482,16,-5,20
-25,-2018,-484,1,-12,15
-17,-2031,-501,-15,-14,10
-1,-2036,-509,-18,-3,8
-10,-2028,-507,-15,-2,11
-34,-2036,-513,-16,-5,7
-36,-2057,-527,-20,-7,-2
-14,-2054,-532,-13,-6,-4
-10,-2042,-523,-10,-9,8
-22,-2045,-532,-16,-9,16
-8,-2053,-536,-12,-12,11
-2,-2049,-536,-3,-9,5
2,-2051,-525,0,3,11
-7,-2044,-505,6,0,24
-16,-2038,-506,6,-6,28
-10,-2052,-515,0,-5,24
-18,-2053,-517,0,-9,21
-28,-2053,-515,-2,-11,19
-25,-2056,-519,-3,-12,18
-24,-2050,-516,0,-16,20
-33,-2054,-517,4,-12,19
-44,-2044,-501,5,-21,13
-36,-2028,-482,1,-24,4
-33,-2039,-496,-13,-22,-1
-20,-2045,-521,-18,-42,0
-2,-2044,-520,-14,-55,13
1,-2055,-544,-18,-43,26
0,-2049,-550,-6,-57,30
-12,-2057,-539,2,-44,35
-18,-2049,-536,5,-25,30
-13,-2021,-532,5,-34,30
-26,-2082,-529,-13,-10,67
-21,-2074,-536,6,-17,43
-17,-2032,-518,24,-9,-7
-18,-2043,-514,10,-4,-12
-30,-2049,-501,5,-7,-10
-19,-2034,-496,-1,-5,-22
-9,-2035,-498,-10,-9,-11
-21,-2043,-500,-15,-14,-8
-20,-2041,-510,-15,-5,-28
-11,-2036,-524,-17,-1,-34
-17,-2039,-514,-17,-5,-22
-20,-2033,-510,-16,-1,-17
-15,-2040,-527,-19,-2,-13
-2,-2046,-538,-23,4,-10
5,-2054,-550,-23,13,-6
9,-2064,-563,-15,12,0
6,-2065,-559,2,7,5
-1,-2062,-555,14,3,7
-7,-2057,-532,26,-3,14
-23,-2031,-500,32,-5,16
-40,-2026,-473,23,-3,7
-39,-2022,-465,10,-1,-2
-47,-2021,-465,-8,1,-6
-54,-2041,-489,-27,-1,-13
-31,-2063,-524,-33,4,-20
-21,-2072,-549,-26,6,-21
-19,-2071,-552,-6,-1,-16
-8,-2056,-527,12,-9,-8
-7,-2032,-504,21,-13,5
-11,-2032,-490,16,-19,16
-20,-2045,-493,7,-22,20
-27,-2046,-491,1,-17,15
-32,-2051,-495,-4,-16,12
-32,-2057,-507,-7,-10,6
-38,-2063,-519,-10,4,-2
-37,-2059,-525,-8,-2,-8
-25,-2064,-535,-1,0,-15
-17,-2049,-534,7,-2,-18
-20,-2036,-514,10,-9,-12
-16,-2037,-513,5,-8,-12
8,-2032,-517,-1,-4,-15
20,-2028,-513,-2,0,-13
16,-2027,-521,-7,8,-8
15,-2035,-534,-5,16,-2
20,-2031,-522,4,6,12
7,-2031,-519,8,2,29
-2,-2031,-509,4,1,35
-5,-2037,-503,-1,0,36
-19,-2043,-489,-6,4,29
-30,-2049,-493,-15,16,13
-28,-2055,-505,-20,15,4
-18,-2054,-510,-16,11,5
-17,-2062,-514,-12,12,7
-16,-2064,-515,-9,17,2
-24,-2057,-511,-7,21,-2
-24,-2061,-519,-8,13,-1
-28,-2058,-517,-3,11,1
-33,-2051,-508,4,11,7
-34,-2058,-513,2,1,17
-22,-2049,-512,7,1,12
-12,-2040,-508,8,11,2
-8,-2046,-517,4,10,6
-11,-2049,-511,8,6,15
-24,-2045,-515,15,8,11
-31,-2039,-507,18,1,5
-31,-2032,-491,18,-3,-3
-17,-2026,-488,11,7,-10
-6,-2028,-486,6,16,-10
-1,-2019,-483,5,12,-7
-1,-2005,-465,4,18,-10
-7,-2007,-463,-6,21,-11
-10,-2017,-463,-21,12,-6
-15,-2021,-470,-30,12,2
-23,-2031,-503,-42,6,19
-17,-2092,-540,-45,-7,51
-10,-2127,-557,-14,-4,38
-23,-2047,-544,76,17,3
-33,-2066,-523,30,1,27
-17,-2092,-533,-1,-14,33
-10,-2078,-513,22,0,22
-6,-2060,-500,16,3,18
-2,-2069,-507,19,16,8
-23,-2058,-491,28,18,4
-27,-2056,-490,18,8,4
-26,-2069,-500,12,-6,20
-30,-2061,-486,23,-10,17
-18,-2053,-477,25,3,-1
-20,-2045,-482,17,5,0
-21,-2042,-476,12,8,-5
-17,-2035,-483,3,18,-16
-18,-2035,-498,1,12,-16
-8,-2031,-503,5,5,-6
-8,-2030,-507,6,4,7
-9,-2028,-507,7,3,14
-2,-2035,-519,8,8,10
5,-2033,-517,14,3,4
-1,-2026,-508,26,-1,7
-6,-2028,-495,25,-3,16
-12,-2026,-488,23,-9,34
-21,-2032,-481,21,-6,42
-17,-2040,-483,16,3,33
-6,-2032,-479,14,16,22
-7,-2029,-473,9,18,28
-26,-2027,-482,0,12,40
-33,-2062,-496,-5,-6,70
-42,-2061,-494,9,-11,67
-60,-2035,-466,24,-3,45
-67,-2030,-450,16,-6,38
-68,-2047,-440,11,1,23
-63,-2018,-448,25,12,-5
-56,-2026,-459,-14,-3,-4
-43,-2058,-488,-35,-18,7
-52,-2062,-492,-27,-13,7
-36,-2054,-487,-28,-17,-6
-10,-2050,-490,-28,-9,-10
-12,-2051,-479,-27,-8,-2
-17,-2066,-495,-34,-9,-3
-8,-2071,-515,-33,-9,-2
-12,-2065,-510,-19,-13,8
-19,-2072,-509,-16,-11,10
-5,-2074,-522,-19,-1,1
15,-2074,-532,-16,6,-4
9,-2073,-530,-6,7,1
-2,-2076,-529,1,5,10
-2,-2062,-512,13,-5,19
-4,-2057,-488,19,-10,27
-9,-2046,-474,11,2,25
-28,-2051,-479,1,17,8
-29,-2063,-503,-8,18,-5
-27,-2068,-508,-9,17,-7
-41,-2066,-508,5,13,-2
-51,-2048,-477,16,-4,2
-37,-2030,-457,16,-10,2
-42,-2030,-456,0,-3,2
-56,-2027,-465,-11,2,-7
-49,-2036,-483,-22,2,-20
-27,-2039,-485,-24,-1,-21
-15,-2029,-480,-21,-1,-15
-10,-2029,-486,-23,-2,-7
6,-2028,-486,-22,-7,1
3,-2025,-486,-18,-6,11
-19,-2031,-490,-19,-5,22
-39,-2047,-495,-20,-10,28
-44,-2057,-512,-17,-9,26
-28,-2069,-521,-13,0,27
-35,-2069,-505,0,16,23
-43,-2045,-477,5,12,18
-39,-2046,-462,-2,1,14
-45,-2053,-465,-10,-9,15
-38,-2050,-461,-13,-15,17
-30,-2046,-467,-19,-8,8
-30,-2054,-483,-26,-1,-2
-30,-2055,-486,-24,-6,-7
-31,-2065,-503,-27,-4,-5
-18,-2074,-508,-26,-2,3
-14,-2064,-507,-17,1,13
-23,-2061,-502,-13,-4,15
-19,-2073,-521,-14,-2,6
-22,-2075,-532,-2,-2,-2
-19,-2055,-510,10,-12,0
-19,-2035,-476,15,-16,7
-35,-2038,-474,2,-14,12
-56,-2054,-504,-10,-11,4
-30,-2048,-497,-3,-17,-4
-13,-2026,-466,6,-12,-4
-19,-2011,-440,-2,-6,-1
-33,-2015,-445,-18,-11,2
-20,-2020,-440,-32,-15,-6
3,-2014,-462,-47,-2,-13
-3,-2043,-510,-54,7,0
-14,-2072,-538,-42,-7,21
-31,-2069,-525,-18,-16,30
-35,-2064,-518,-9,-21,31
-20,-2063,-496,-10,-21,28
-24,-2054,-484,-12,-1,14
-43,-2060,-487,-17,11,5
-48,-2076,-505,-19,4,7
-43,-2072,-496,-6,-12,8
-38,-2055,-475,4,-19,7
-40,-2046,-462,-6,-12,7
-46,-2043,-465,-19,-7,2
-47,-2066,-482,-25,-10,6
-46,-2066,-495,-23,-15,2
-32,-2065,-506,-18,-22,-3
-12,-2058,-496,-14,-18,1
-4,-2050,-483,-10,-4,-3
-14,-2034,-481,-10,-5,-5
-14,-2041,-497,-21,-4,4
-3,-2059,-525,-25,-3,6
-1,-2065,-534,-13,-7,6
-16,-2064,-537,-4,-13,10
-27,-2068,-530,1,-24,15
-29,-2065,-510,11,-32,17
-37,-2050,-498,13,-22,13
-61,-2048,-500,5,-14,10
-72,-2053,-501,0,-21,10
-44,-2047,-490,0,-20,-2
-20,-2034,-487,1,-13,-9
-23,-2028,-489,-4,-5,-3
-18,-2030,-479,-7,-5,-4
-6,-2026,-467,-12,4,-10
-4,-2025,-479,-25,16,-15
-8,-2046,-494,-31,18,-14
-8,-2051,-509,-24,15,-13
-9,-2047,-505,-14,6,-6
-25,-2052,-496,-10,-8,12
-40,-2052,-490,-7,-15,19
-36,-2044,-475,-9,-12,9
-28,-2044,-470,-15,-3,0
-28,-2048,-473,-17,8,1
-40,-2053,-472,-16,13,9
-37,-2046,-464,-16,6,12
-29,-2053,-483,-22,2,14
-39,-2063,-496,-22,1,15
-33,-2061,-491,-16,-6,13
-38,-2056,-486,-7,-12,11
-53,-2051,-477,-4,-12,11
-53,-2051,-473,-8,-12,11
-63,-2056,-470,-12,-15,5
-65,-2063,-491,-21,-14,-9
-45,-2066,-505,-25,-13,-18
-31,-2063,-509,-14,-10,-19
-31,-2049,-496,-7,-16,-14
-24,-2045,-493,-7,-22,-11
-11,-2043,-486,-7,-26,-10
-12,-2037,-483,-8,-20,-9
-9,-2036,-475,-12,-23,-8
-8,-2036,-474,-19,-16,-8
-12,-2041,-499,-26,-9,-7
-14,-2053,-511,-24,-16,-5
-19,-2044,-511,-14,-19,-4
-13,-2036,-504,-7,-26,-2
-8,-2024,-479,-6,-22,3
-25,-2023,-478,-15,-10,5
-30,-2030,-481,-25,-12,2
-19,-2023,-483,-27,-12,-4
-11,-2033,-503,-34,-6,-5
-10,-2045,-520,-33,-5,1
-12,-2040,-504,-20,-8,10
-28,-2029,-484,-15,-14,17
-32,-2039,-494,-26,-14,19
-13,-2060,-513,-32,-7,17
-7,-2057,-510,-19,2,12
-23,-2051,-495,-13,-2,21
-51,-2055,-502,-12,-10,25
-51,-2056,-495,-10,-19,23
-36,-2037,-463,-11,-19,18
-36,-2045,-475,-27,-12,4
-37,-2062,-508,-40,-7,-11
-29,-2060,-515,-34,-5,-20
-23,-2046,-504,-23,-5,-22
-22,-2047,-485,-21,-7,-21
-28,-2060,-486,-23,-5,-37
7,-2017,-480,-22,6,-79
21,-2011,-465,-31,13,-60
-8,-2050,-488,-46,-4,1
-24,-2063,-489,-38,-4,7
-28,-2060,-508,-32,6,-4
-33,-2072,-522,-33,-4,9
-38,-2083,-527,-26,-4,6
-36,-2077,-528,-14,0,2
-32,-2077,-526,-2,-3,19
-39,-2075,-515,10,-11,28
-36,-2069,-512,14,-8,23
-32,-2059,-504,13,-9,21
-28,-2048,-494,13,-14,21
-21,-2043,-494,12,-13,12
-20,-2038,-490,8,-13,3
-26,-2035,-481,5,-16,1
-35,-2038,-487,-5,-17,0
-25,-2040,-487,-8,-23,0
-26,-2036,-491,-8,-24,0
-35,-2037,-491,-11,-23,-3
-28,-2032,-480,-18,-20,-9
-18,-2032,-487,-21,-16,-11
-17,-2034,-504,-24,-14,-7
-6,-2042,-517,-27,-10,-3
1,-2035,-520,-25,-9,-3
-2,-2035,-519,-22,-13,2
-1,-2037,-511,-18,-23,12
-8,-2037,-501,-16,-20,16
-21,-2053,-513,-24,-11,17
-23,-2068,-527,-22,-7,13
-20,-2064,-523,-15,1,9
-23,-2068,-516,-4,-1,10
-30,-2058,-499,7,-13,15
-30,-2046,-480,6,-16,18
-37,-2044,-472,-3,-14,15
-39,-2055,-476,-9,-14,11
-25,-2052,-475,-13,-7,6
-17,-2044,-484,-14,2,2
-16,-2052,-488,-19,-4,14
-12,-2050,-496,-20,-10,19
-6,-2037,-485,-11,-17,17
-7,-2016,-467,-4,-31,24
-27,-2008,-442,-3,-38,39
-66,-2000,-425,-13,-36,44
-101,-2004,-436,-31,-36,35
-69,-2024,-461,-50,-24,13
-14,-2016,-481,-50,-15,-7
-23,-2007,-493,-48,-31,-2
-27,-2029,-523,-57,-16,6
-16,-2040,-541,-56,1,2
-19,-2035,-534,-49,0,4
-23,-2042,-538,-49,-4,14
-25,-2062,-547,-47,-21,22
-27,-2069,-549,-39,-26,33
-38,-2069,-544,-30,-25,35
-58,-2075,-531,-26,-22,25
-58,-2076,-526,-27,-15,15
-57,-2063,-511,-26,-16,12
-59,-2066,-501,-27,-20,16
-57,-2067,-506,-31,-28,21
-46,-2072,-503,-29,-28,14
-33,-2061,-494,-26,-22,0
-18,-2046,-489,-31,-18,-7
0,-2045,-488,-39,-15,-5
-1,-2049,-497,-43,-14,3
-28,-2055,-517,-46,-8,13
-46,-2070,-541,-40,-18,21
-43,-2076,-557,-28,-18,21
-48,-2081,-563,-18,-9,13
-38,-2080,-568,-5,-9,6
-22,-2072,-566,15,-16,12
-5,-2060,-552,40,-23,22
-18,-2040,-526,58,-27,37
-41,-2020,-481,58,-23,40
-52,-2022,-476,37,-16,32
-40,-2016,-485,16,-19,22
-23,-2020,-488,-1,-10,7
-23,-2025,-498,-11,1,1
-34,-2022,-479,-12,-9,1
-41,-2011,-453,-21,-11,1
-34,-2008,-464,-42,-8,-3
-23,-2033,-494,-60,-2,-1
-30,-2055,-528,-63,7,-3
-25,-2071,-554,-57,13,-9
-15,-2071,-556,-40,9,-4
-30,-2058,-537,-26,4,4
-28,-2055,-519,-25,-3,11
-27,-2067,-513,-25,-7,19
-36,-2073,-510,-25,-7,22
-48,-2082,-509,-24,-9,22
-58,-2082,-490,-13,-9,21
-65,-2072,-472,-5,-14,15
-72,-2051,-451,-4,-24,3
-77,-2033,-440,-20,-22,-12
-66,-2041,-468,-47,-10,-26
-48,-2052,-496,-62,-6,-39
-43,-2045,-512,-62,-4,-51
-32,-2057,-550,-63,-6,-48
-21,-2080,-574,-51,-13,-35
-25,-2069,-568,-25,-17,-29
-26,-2064,-548,-9,-22,-24
-26,-2058,-533,-4,-19,-18
-36,-2049,-533,-3,-9,-18
-45,-2034,-517,1,-19,-9
-60,-2034,-504,4,-24,1
-59,-2024,-501,-3,-23,-1
-42,-2010,-500,-11,-22,4
-47,-2059,-517,-21,-24,26
-37,-2046,-521,-13,-15,-1
-25,-2023,-515,-7,-8,-28
-39,-2034,-511,-11,-21,-14
-50,-2036,-507,-8,-24,-15
-41,-2019,-509,-6,-23,-24
-41,-2022,-506,-6,-28,-15
-47,-2020,-501,-4,-32,-12
-42,-2012,-492,-5,-34,-18
-39,-2003,-494,-9,-24,-17
-32,-1996,-481,-17,-24,-11
-7,-1981,-476,-26,-19,-13
-14,-1978,-478,-46,0,-14
-32,-2000,-500,-64,28,-21
-25,-2008,-517,-65,40,-35
-8,-1997,-516,-59,29,-32
14,-2006,-525,-63,20,-11
15,-2014,-533,-61,11,2
2,-2024,-533,-57,9,6
10,-2024,-542,-58,23,5
1,-2028,-540,-52,-4,20
-10,-2033,-533,-43,-15,44
-27,-2032,-519,-42,-23,58
-37,-2053,-531,-50,-24,58
-36,-2069,-554,-52,-20,51
-33,-2069,-553,-48,-14,40
-12,-2061,-548,-38,-11,39
-24,-2065,-549,-32,-10,46
-47,-2072,-542,-33,-15,46
-49,-2081,-545,-30,-21,39
-49,-2086,-549,-26,-26,34
-51,-2081,-542,-26,-21,26
-38,-2074,-542,-28,-12,13
-45,-2073,-544,-30,-3,1
-53,-2076,-546,-35,2,-10
-47,-2076,-548,-33,-7,-16
-47,-2065,-547,-26,-18,-16
-51,-2064,-553,-24,-23,-13
-35,-2066,-562,-17,-24,-14
-22,-2049,-548,-4,-25,-13
-18,-2036,-531,-2,-19,-10
-17,-2031,-516,-9,-13,-5
-21,-2033,-521,-15,-11,-1
