ax,ay,az,gx,gy,gz
1349,766,1765,387,-253,-1237
1376,779,1726,302,-284,-1403
1505,783,1659,242,-351,-1554
1666,754,1582,236,-370,-1648
1775,711,1552,262,-319,-1655
1817,666,1571,301,-261,-1590
1771,619,1653,339,-193,-1498
1694,565,1809,333,-111,-1406
1592,573,1961,252,-75,-1333
1507,664,2055,101,-96,-1310
1507,726,2115,-75,-134,-1373
1540,844,2207,-195,-173,-1509
1713,842,2184,-335,-254,-1671
1953,832,2184,-480,-279,-1819
2086,916,2124,-674,-319,-1951
2146,922,1983,-836,-362,-2087
2208,849,1822,-900,-451,-2218
2239,790,1641,-944,-537,-2293
2241,732,1429,-992,-600,-2258
2248,644,1179,-976,-642,-2111
2185,459,898,-808,-618,-1864
1990,361,922,-562,-442,-1533
1707,275,969,-387,-257,-1220
1519,204,1024,-195,-82,-1022
1387,204,1157,-40,-12,-863
1277,264,1306,-45,-30,-787
1278,329,1318,-202,-80,-823
1460,356,1266,-262,-118,-859
1624,423,1230,-239,-58,-757
1651,421,1163,-113,246,-658
1629,576,1407,83,734,-610
1645,710,1660,118,795,-435
1690,701,1756,75,538,-136
1651,626,1738,35,352,231
1503,553,1748,51,388,565
1226,545,1789,58,587,725
945,532,1812,19,690,697
677,477,1805,-82,632,409
578,382,1811,-213,395,-50
599,392,1807,-376,7,-430
594,418,1742,-664,-298,-767
720,353,1541,-901,-563,-1050
959,354,1382,-953,-776,-1189
1053,364,1352,-912,-846,-1175
1066,338,1375,-871,-890,-1101
1125,334,1374,-852,-952,-1016
1188,346,1355,-817,-936,-920
1233,384,1353,-771,-827,-796
1296,422,1359,-690,-670,-683
1361,429,1394,-533,-544,-518
1346,424,1439,-403,-410,-296
1322,422,1489,-295,-245,-151
1352,402,1538,-212,-117,-119
1369,374,1608,-186,-32,-132
1354,337,1638,-220,-34,-120
1381,315,1640,-278,-106,-84
1399,298,1645,-317,-157,-49
1349,280,1656,-331,-195,-31
1307,281,1673,-335,-268,-28
1276,336,1664,-369,-323,-32
1255,344,1651,-405,-298,18
1254,382,1625,-409,-246,144
1169,350,1611,-358,-117,300
1066,378,1714,-276,-17,361
1002,343,1730,-331,-36,327
1029,345,1713,-463,-118,286
1140,359,1605,-629,-194,298
1236,393,1487,-736,-194,360
1240,439,1399,-760,-157,449
1185,495,1357,-753,-140,535
1154,544,1302,-734,-159,588
1158,587,1293,-672,-174,615
1173,610,1327,-572,-155,654
1148,634,1425,-474,-85,721
1096,641,1535,-429,-26,765
1080,656,1617,-460,-34,747
1100,672,1656,-521,-59,674
1115,675,1694,-595,-38,560
1095,763,1671,-675,-8,454
1093,933,1592,-754,2,363
1158,1133,1544,-780,-2,256
1248,1287,1557,-724,-2,127
1362,1457,1529,-575,-15,16
1409,1537,1507,-392,-7,-64
1466,1592,1440,-238,-15,-255
1567,1466,1333,-43,-103,-373
1643,1185,1305,158,-117,-368
1577,885,1389,313,-28,-241
1388,691,1488,390,-10,-69
1152,569,1573,363,-78,6
1029,501,1654,238,-200,-51
1063,515,1675,72,-326,-133
1199,577,1649,-76,-399,-184
1370,683,1633,-177,-450,-182
1451,827,1622,-261,-466,-151
1497,975,1591,-321,-518,-125
1591,1095,1454,-256,-490,-146
1573,1231,1475,-4,-362,-127
1480,1239,1547,133,-280,-49
1414,1189,1511,132,-256,47
1334,1127,1463,211,-157,133
1183,1056,1499,291,-8,90
1028,978,1516,252,-2,-47
985,904,1439,119,-146,-223
1022,870,1308,6,-301,-395
1079,836,1197,-49,-395,-516
1120,824,1125,-63,-423,-567
1126,826,1089,-57,-414,-575
1121,848,1062,-31,-422,-574
1174,861,1047,32,-444,-568
1243,924,1012,124,-435,-523
1317,896,1025,247,-343,-435
1270,844,1121,382,-200,-339
1180,804,1212,453,-144,-293
1171,755,1289,474,-156,-327
1199,710,1341,440,-157,-413
1247,663,1370,402,-140,-499
1273,646,1376,350,-111,-547
1319,628,1347,351,-129,-634
1384,533,1347,316,-150,-586
1317,596,1291,255,0,-552
1268,675,1284,380,22,-760
1350,578,1322,447,-100,-906
1461,557,1376,407,-216,-835
1488,563,1390,346,-254,-716
1460,568,1432,332,-208,-725
1423,587,1421,289,-179,-804
1412,648,1357,232,-170,-864
1471,704,1322,193,-172,-874
1577,722,1296,212,-154,-824
1656,696,1350,293,-60,-743
1663,632,1430,372,84,-653
1619,607,1573,411,213,-558
1591,584,1723,355,300,-484
1539,575,1739,244,361,-449
1466,599,1651,138,385,-440
1474,655,1578,60,326,-427
1464,729,1478,8,248,-391
1471,778,1374,45,201,-351
1488,783,1369,193,197,-292
1427,747,1473,370,270,-210
1313,731,1637,486,356,-162
1258,705,1818,501,355,-207
1283,687,1965,411,296,-331
1367,662,2031,256,218,-479
1420,675,2068,105,150,-608
1463,731,2030,-51,88,-688
1513,793,1980,-188,43,-727
1614,821,1927,-278,-18,-733
1650,793,1892,-317,-53,-646
1521,723,1873,-361,-45,-604
1386,631,1822,-449,-139,-637
1335,553,1696,-578,-303,-718
1347,499,1492,-700,-426,-793
1377,478,1291,-763,-505,-789
1390,472,1141,-760,-517,-686
1378,505,1046,-702,-477,-516
1356,573,1005,-606,-405,-318
1450,609,980,-449,-227,-164
1473,664,1053,-212,20,129
1434,699,1210,70,323,451
1278,808,1586,277,478,669
1273,735,1764,153,383,699
1384,755,1789,56,293,839
1331,800,1803,4,375,921
1168,782,1853,-51,416,885
1059,786,1818,-172,265,784
1022,769,1697,-307,108,620
1059,748,1593,-382,-26,465
1134,723,1499,-424,-139,373
1225,707,1432,-451,-189,366
1276,710,1360,-442,-195,431
1273,698,1326,-386,-170,521
1255,675,1330,-331,-137,608
1253,668,1357,-295,-90,679
1257,633,1396,-272,-25,733
1246,640,1420,-246,27,782
1232,651,1439,-240,79,838
1187,642,1466,-232,140,881
1102,646,1481,-221,175,890
1020,687,1459,-235,185,883
1014,759,1422,-257,195,842
1079,815,1415,-208,207,784
1113,788,1443,-112,201,788
1093,775,1494,-25,205,804
1073,741,1505,-2,231,768
1132,677,1494,15,235,691
1190,614,1470,22,195,729
1167,602,1436,42,156,821
1146,565,1406,82,131,808
1163,512,1401,120,90,765
1182,499,1376,144,63,786
1125,520,1352,161,88,846
1080,541,1354,175,108,885
1102,555,1375,175,111,897
1139,571,1364,178,150,897
1139,589,1378,225,239,898
1131,546,1432,272,306,931
1155,484,1513,301,346,960
1179,402,1636,307,359,970
1167,325,1758,256,349,958
1128,287,1818,149,317,911
1073,278,1848,32,271,813
1065,264,1861,-97,202,680
1109,252,1853,-235,135,564
1196,298,1778,-370,47,482
1336,368,1664,-465,-14,428
1466,413,1584,-489,-4,417
1534,434,1535,-453,48,458
1560,427,1534,-391,104,533
1575,425,1577,-335,163,611
1559,404,1652,-304,213,654
1514,398,1752,-309,218,650
1482,445,1818,-379,168,609
1488,563,1809,-475,86,544
1512,734,1783,-520,26,459
1571,818,1774,-487,0,333
1697,912,1855,-393,-33,342
1719,943,1862,-326,-4,412
1667,918,1839,-253,30,427
1653,827,1800,-185,-11,422
1656,703,1718,-149,-48,408
1647,555,1613,-126,-74,415
1596,409,1556,-90,-88,466
1489,314,1532,-77,-86,546
1374,291,1502,-99,-80,618
1340,334,1498,-124,-74,671
1396,414,1558,-128,-46,727
1490,493,1641,-130,0,791
1543,592,1641,-162,29,855
1597,675,1553,-186,49,860
1704,759,1471,-140,75,832
1764,835,1426,-51,134,840
1742,881,1428,41,197,901
1726,863,1433,111,233,961
1710,851,1447,159,259,1003
1654,833,1438,178,296,1020
1568,826,1453,190,305,1001
1487,801,1483,159,248,963
1432,772,1515,114,171,899
1356,706,1576,93,109,823
1243,604,1643,60,69,731
1173,494,1669,-36,55,609
1129,448,1659,-199,36,461
1128,424,1573,-414,-61,303
1192,478,1420,-623,-175,163
1244,533,1227,-751,-270,90
1257,584,1066,-764,-348,90
1247,635,952,-698,-331,103
1211,680,902,-580,-224,78
1181,704,869,-464,-150,72
1184,706,828,-361,-117,114
1149,765,770,-266,-53,185
1102,834,687,-142,23,230
1032,810,688,28,104,203
948,827,730,221,116,78
907,833,791,425,85,-112
875,846,942,495,63,-207
860,821,997,446,55,-248
909,791,1018,580,41,-268
961,760,1143,793,79,-242
915,684,1328,918,182,-186
836,649,1485,919,193,-169
812,643,1536,828,102,-239
899,641,1543,745,43,-413
1003,683,1568,661,55,-604
1099,719,1555,599,44,-778
1210,758,1545,597,4,-937
1316,836,1585,593,-8,-1076
1405,892,1598,543,16,-1204
1515,924,1617,563,9,-1279
1625,934,1670,616,10,-1299
1653,896,1700,670,49,-1303
1637,864,1752,723,34,-1316
1624,838,1789,683,-45,-1327
1651,826,1771,600,-142,-1344
1700,844,1766,547,-217,-1354
1689,868,1773,537,-222,-1324
1644,910,1821,555,-170,-1263
1620,938,1925,584,-116,-1202
1620,966,2035,603,-68,-1167
1634,1014,2077,588,-4,-1171
1663,1002,2106,571,41,-1230
1701,963,2155,558,60,-1318
1725,966,2235,505,64,-1408
1750,944,2259,388,41,-1507
1725,894,2232,247,-27,-1624
1688,820,2113,85,-133,-1776
1687,724,1925,-75,-217,-1942
1737,607,1705,-189,-307,-2039
1771,489,1513,-237,-408,-1959
1681,341,1420,-211,-402,-1772
1452,275,1434,-214,-342,-1602
1217,250,1450,-240,-329,-1485
1095,210,1475,-270,-364,-1445
1081,210,1494,-327,-405,-1415
1042,229,1474,-395,-339,-1373
992,289,1432,-432,-222,-1330
1019,381,1366,-443,-126,-1264
1107,468,1288,-398,-37,-1176
1177,539,1223,-284,68,-1082
1201,573,1191,-136,183,-983
1192,588,1219,13,266,-902
1222,598,1241,132,259,-862
1294,600,1269,241,212,-852
1385,590,1307,343,151,-830
1440,539,1375,453,97,-779
1412,446,1503,555,86,-711
1314,362,1638,595,77,-644
1227,271,1748,574,42,-605
1165,185,1847,514,-6,-605
1110,108,1929,401,-38,-639
1079,74,1960,218,-93,-708
1084,100,1912,8,-185,-791
1151,139,1813,-159,-271,-857
1322,185,1727,-240,-331,-862
1426,205,1677,-249,-287,-769
1379,195,1699,-204,-211,-589
1327,166,1749,-185,-212,-397
1324,164,1741,-223,-177,-311
1387,140,1711,-242,-160,-317
1493,125,1666,-286,-210,-243
1585,146,1622,-335,-222,-68
1635,168,1622,-330,-197,123
1644,191,1642,-290,-184,300
1560,203,1683,-231,-149,476
1399,193,1749,-188,-105,641
1260,198,1777,-201,-85,771
1195,218,1735,-249,-81,838
1228,239,1657,-273,-73,867
1294,260,1574,-274,-55,921
1370,305,1534,-260,-16,1027
1466,368,1557,-236,28,1176
1448,416,1599,-200,61,1343
1297,419,1617,-145,86,1466
1203,397,1671,-98,136,1552
1139,398,1735,-105,197,1630
1114,392,1771,-181,175,1663
1105,403,1775,-291,130,1628
1099,429,1773,-415,56,1543
1091,481,1737,-581,-56,1434
1154,504,1663,-726,-157,1301
1292,535,1573,-807,-187,1223
1356,557,1492,-850,-82,1260
1378,660,1459,-859,53,1336
1434,756,1411,-853,117,1416
1492,838,1334,-782,138,1489
1508,873,1279,-615,195,1545
1476,860,1313,-404,271,1599
1390,843,1422,-246,328,1632
1339,869,1568,-196,273,1603
1376,938,1657,-234,132,1478
1491,1032,1644,-279,2,1288
1632,1126,1566,-285,-106,1188
1691,1250,1502,-217,-156,1173
1717,1392,1496,-84,-143,1128
1821,1437,1518,108,-186,1101
1898,1363,1556,348,-199,1130
1828,1207,1584,576,-134,1164
1643,1015,1632,746,-88,1174
1510,802,1651,799,-122,1152
1460,637,1651,776,-208,1127
1409,531,1662,714,-270,1121
1363,483,1672,633,-285,1115
1343,483,1705,558,-273,1096
1330,517,1750,486,-230,1106
1321,559,1777,388,-190,1127
1344,668,1818,307,-111,1126
1341,798,1852,221,42,1116
1365,901,1852,138,151,1070
1444,999,1755,66,241,974
1528,1066,1691,45,282,897
1559,997,1550,-24,260,952
1548,1017,1444,-22,336,934
1489,987,1401,37,389,828
1487,897,1348,48,312,756
1511,834,1258,41,214,751
1485,783,1215,71,167,770
1404,731,1219,113,127,775
1281,692,1251,144,98,765
1144,656,1281,162,99,745
1031,625,1301,161,122,718
967,627,1318,146,138,681
939,635,1313,136,167,622
929,640,1310,151,194,548
938,613,1309,147,189,501
941,630,1290,151,185,434
940,642,1287,167,153,330
963,633,1280,157,75,221
994,654,1244,111,-19,142
1022,665,1175,80,-89,78
1076,702,1119,98,-118,25
1118,708,1072,147,-99,-4
1139,729,1088,233,-83,0
1125,755,1146,290,-78,42
1115,791,1254,344,-49,1
1107,773,1386,387,-34,-116
1071,699,1484,382,-61,-148
1013,675,1540,323,-90,-158
994,636,1522,257,-16,-336
1017,602,1589,229,79,-564
1055,553,1631,108,43,-670
1109,620,1575,-20,-65,-784
1181,696,1517,-106,-147,-966
1318,778,1490,-162,-236,-1122
1467,860,1486,-184,-315,-1178
1566,930,1522,-156,-307,-1151
1594,956,1583,-101,-266,-1088
1580,934,1633,-68,-225,-1044
1593,882,1654,-79,-179,-1049
1635,820,1659,-120,-122,-1071
1639,818,1649,-176,-47,-1065
1596,919,1639,-232,33,-1047
1563,1012,1645,-259,95,-1061
1583,1089,1691,-247,129,-1108
1612,1199,1770,-227,154,-1159
1638,1328,1874,-211,166,-1231
1709,1409,1952,-195,125,-1343
1787,1377,1972,-175,63,-1473
1796,1258,1945,-139,58,-1605
1683,1101,1906,-134,-11,-1734
1585,880,1749,-186,-131,-1843
1452,711,1632,-234,-208,-1902
1313,590,1534,-270,-288,-1946
1226,434,1412,-298,-369,-2018
1241,252,1263,-311,-442,-2074
1302,132,1160,-310,-479,-2028
1339,78,1089,-302,-459,-1870
1333,111,1081,-251,-382,-1670
1298,130,1128,-166,-322,-1408
1298,156,1284,-59,-176,-1145
1135,249,1539,43,-21,-891
859,301,1774,32,-7,-746
789,318,1935,-79,-27,-834
825,391,2064,-243,-2,-1037
937,456,2079,-481,-60,-1257
1160,547,1947,-745,-210,-1469
1381,634,1744,-933,-348,-1629
1537,696,1566,-1010,-404,-1720
1703,714,1403,-1016,-461,-1707
1826,686,1277,-924,-481,-1590
1893,617,1222,-771,-487,-1387
1795,507,1224,-585,-473,-1151
1568,416,1314,-427,-413,-962
1397,331,1374,-376,-412,-844
1353,302,1351,-385,-455,-764
1364,296,1295,-380,-455,-690
1349,306,1219,-340,-410,-593
1312,348,1134,-258,-353,-475
1323,395,1060,-139,-298,-344
1386,446,1030,12,-243,-202
1531,503,1044,166,-188,-9
1578,504,1128,383,-47,262
1320,523,1386,623,140,522
1048,458,1595,715,142,673
934,396,1742,676,105,691
796,374,1867,577,110,582
698,366,1934,400,32,367
740,354,1929,188,-171,90
939,391,1807,-15,-408,-154
1172,446,1601,-115,-533,-263
1271,476,1471,-32,-551,-179
1298,500,1469,141,-521,31
1255,502,1496,298,-365,230
1110,521,1569,468,-130,331
992,504,1643,582,5,439
944,481,1700,658,87,558
931,457,1734,727,180,615
925,441,1726,794,252,628
940,442,1732,834,279,661
1003,421,1720,859,253,706
1084,394,1715,904,244,752
1137,381,1767,939,276,818
1098,371,1848,956,318,897
987,344,1928,933,311,952
889,334,1963,844,273,941
846,345,1928,729,255,865
908,362,1842,619,237,780
1063,364,1730,549,231,745
1195,369,1648,523,282,777
1237,376,1608,503,374,843
1262,376,1618,479,451,905
1300,385,1648,447,508,956
1305,426,1693,398,557,990
1338,529,1764,330,579,995
1407,656,1834,252,553,990
1482,816,1863,195,519,966
1586,950,1828,185,483,896
1728,1022,1798,248,463,830
1860,1027,1785,355,455,832
1934,963,1767,483,454,897
1934,821,1770,587,462,1004
1806,680,1805,644,532,1092
1628,515,1908,626,603,1124
1550,351,1945,498,599,1101
1535,277,1885,297,584,1078
1526,278,1748,113,594,1096
1478,311,1608,9,625,1146
1433,352,1530,-30,671,1214
1399,399,1524,-47,730,1286
1393,489,1557,-68,795,1354
1442,578,1602,-91,866,1416
1481,674,1629,-85,969,1471
1471,748,1715,-77,1067,1476
1448,803,1774,-147,1080,1429
1477,832,1764,-253,1034,1336
1542,861,1706,-352,979,1209
1616,878,1644,-426,930,1080
1686,906,1582,-478,872,970
1710,909,1511,-526,783,888
1739,865,1446,-543,667,794
1792,811,1405,-535,555,710
1812,743,1336,-522,485,672
1785,678,1287,-466,435,677
1715,634,1278,-450,402,714
1625,595,1225,-494,403,747
1593,605,1163,-513,343,754
1567,619,1076,-512,294,767
1531,618,1030,-468,293,799
1475,672,983,-437,286,830
1440,682,938,-386,281,858
1445,717,938,-349,275,934
1478,780,947,-294,246,1030
1517,809,964,-204,239,1106
1500,771,1022,-89,280,1153
1405,757,1121,-20,290,1237
1278,726,1191,-40,231,1211
1259,713,1196,-81,83,1049
1311,692,1161,-108,-47,866
1353,728,1137,-134,-118,708
1371,758,1068,-185,-180,595
1413,808,986,-213,-208,517
1463,855,918,-150,-169,477
1497,906,942,9,-72,469
1515,905,1018,146,43,520
1487,882,1116,268,118,599
1420,840,1228,373,140,631
1371,789,1312,415,111,604
1362,757,1364,418,65,545
1356,738,1400,399,39,479
1378,757,1411,357,21,428
1401,803,1386,324,-11,390
1409,838,1378,345,-13,352
1407,813,1429,407,29,326
1418,800,1480,458,62,329
1368,862,1457,464,104,372
1331,920,1466,492,137,390
1375,1013,1575,552,128,365
1459,1101,1697,614,128,358
1446,1168,1842,697,169,425
1322,1186,1949,727,250,411
1206,1152,2028,767,258,309
1151,1066,2041,798,199,151
1070,922,2034,803,192,-38
951,759,1974,791,176,-260
885,615,1857,732,95,-447
866,484,1654,661,-24,-565
875,390,1508,658,-139,-646
821,329,1438,685,-269,-619
769,286,1403,683,-373,-511
800,262,1329,743,-396,-366
754,337,1422,919,-222,-162
712,430,1550,1059,-77,74
764,549,1686,1151,61,307
855,664,1821,1260,260,504
946,745,1954,1371,502,635
1006,831,2008,1429,661,693
1042,903,1947,1462,737,694
1155,968,1839,1519,733,704
1257,1017,1752,1624,699,779
1201,1030,1706,1783,667,870
1049,989,1739,1975,600,928
830,902,1846,2139,563,944
683,761,1992,2229,542,922
567,617,2087,2224,487,897
470,501,2159,2148,410,833
420,382,2207,2035,338,700
477,284,2254,1879,237,547
638,201,2261,1694,142,445
690,154,2259,1540,168,434
524,148,2292,1387,270,475
299,161,2306,1212,295,465
191,143,2293,1020,255,344
200,142,2285,808,204,163
383,166,2178,567,160,-31
675,227,1989,368,128,-118
883,311,1825,281,148,-87
1002,366,1737,291,200,-30
1110,389,1724,338,222,22
1228,405,1743,363,212,94
1336,426,1760,372,216,186
1399,443,1748,384,233,287
1440,461,1722,402,264,377
1461,468,1669,429,316,462
1469,471,1637,468,397,559
1470,429,1608,517,490,690
1455,420,1616,589,599,825
1428,393,1624,637,713,963
1394,373,1616,656,853,1087
1365,368,1607,688,894,1219
1354,328,1548,660,914,1335
1336,325,1512,629,971,1414
1304,358,1522,608,1000,1460
1304,396,1515,553,985,1471
1351,453,1476,477,950,1477
1402,537,1446,430,909,1475
1437,613,1436,396,865,1516
1470,723,1440,384,828,1533
1534,805,1422,397,783,1482
1625,832,1366,412,722,1401
1723,826,1235,450,653,1336
1799,814,1095,520,615,1326
1847,787,949,616,614,1387
1843,773,822,757,624,1509
1836,784,758,962,637,1670
1795,790,747,1195,706,1869
1715,830,810,1416,839,2096
1598,884,912,1618,1002,2322
1493,915,1067,1803,1160,2484
1424,897,1260,1936,1306,2560
1357,873,1449,1964,1418,2557
1338,859,1599,1881,1434,2448
1379,815,1696,1717,1355,2232
1493,779,1683,1497,1219,1955
1647,764,1570,1285,1076,1677
1783,739,1478,1143,971,1444
1895,704,1442,1038,884,1281
1961,637,1405,936,774,1191
2031,618,1362,840,670,1159
2114,629,1352,767,607,1170
2193,630,1379,738,626,1213
2210,565,1421,726,666,1298
2163,498,1471,672,735,1410
2094,473,1503,562,808,1515
2041,463,1490,413,824,1585
1970,493,1439,254,788,1616
1885,550,1358,109,730,1606
1846,611,1283,-4,636,1571
1837,680,1209,-66,538,1539
1820,754,1131,-67,463,1509
1818,797,1092,-7,379,1461
1746,808,1130,135,319,1405
1681,794,1200,152,230,1372
1632,864,1242,79,179,1421
1595,908,1241,40,197,1476
1580,891,1255,61,261,1506
1555,860,1337,130,342,1538
1498,814,1445,147,443,1543
1435,755,1525,80,529,1498
1380,716,1544,-39,575,1402
1386,702,1538,-157,550,1252
1448,710,1486,-300,493,1091
1550,724,1406,-453,389,953
1619,758,1335,-518,270,854
1662,785,1264,-533,151,784
1688,788,1208,-494,72,756
1690,780,1184,-399,32,792
1623,768,1202,-299,66,861
1532,755,1239,-217,109,918
1470,749,1257,-149,132,945
1479,739,1259,-143,154,978
1527,793,1258,-123,149,1006
1561,814,1288,-18,194,1026
1598,803,1306,79,268,1107
1570,793,1359,166,376,1250
1479,783,1454,274,494,1388
1426,752,1548,322,549,1496
1371,747,1619,329,605,1563
1273,779,1677,312,698,1558
1200,802,1720,256,722,1491
1137,795,1719,173,691,1372
1055,803,1707,95,636,1213
1020,776,1682,3,573,1010
1010,762,1631,-77,468,804
1041,765,1571,-124,308,635
1110,778,1503,-174,155,523
1130,731,1425,-175,58,516
896,649,1388,-40,117,548
571,569,1482,130,280,456
415,526,1545,69,306,252
718,519,1415,-150,61,21
1224,624,1168,-251,-80,-85
1414,699,1039,-103,55,11
1395,697,1080,164,225,260
1273,704,1192,423,366,573
949,758,1314,639,549,836
629,786,1443,802,688,935
465,772,1558,906,770,879
399,777,1680,923,782,720
461,773,1745,850,703,475
658,772,1744,748,552,172
930,769,1701,665,360,-113
1190,804,1662,619,201,-294
1358,791,1575,662,91,-322
1324,799,1560,862,46,-209
1025,798,1642,1096,116,-37
695,687,1790,1268,242,57
524,584,1956,1327,280,36
480,471,2045,1262,236,-78
543,393,2110,1152,107,-242
654,349,2103,979,-46,-391
751,337,2098,806,-134,-497
811,329,2079,668,-185,-548
825,365,2036,559,-217,-533
805,412,1981,504,-210,-478
729,485,1969,504,-179,-425
663,536,1977,512,-180,-415
684,560,1966,504,-229,-445
793,575,1927,502,-234,-491
852,603,1892,528,-200,-478
900,616,1874,579,-184,-454
969,602,1888,640,-165,-451
1021,561,1912,695,-142,-428
1038,527,1931,740,-108,-371
1019,510,1924,778,-75,-302
1005,497,1918,827,-42,-248
1023,492,1901,880,-18,-184
1072,472,1888,946,33,-97
1086,453,1911,1043,93,39
1082,427,1949,1117,145,195
1077,404,1957,1160,221,301
1098,379,1970,1205,296,380
1109,347,1968,1213,378,472
1107,327,1953,1214,465,576
1071,302,1962,1209,537,662
1014,271,1987,1185,579,716
941,247,2010,1135,579,733
882,217,2023,1062,543,697
884,179,2011,965,501,629
918,141,1980,848,473,567
966,109,1924,731,452,523
1019,93,1854,625,440,498
1046,96,1804,521,408,474
1088,93,1731,413,333,435
1144,102,1651,319,262,393
1218,106,1596,248,206,385
1305,109,1544,200,157,427
1342,106,1503,180,144,507
1349,105,1487,175,165,600
1353,101,1485,154,182,686
1364,111,1462,112,207,774
1346,131,1442,77,248,863
1344,160,1445,48,291,945
1340,173,1451,10,327,1027
1320,193,1477,-24,373,1093
1294,215,1505,-73,398,1130
1298,236,1519,-148,381,1132
1331,271,1511,-233,333,1109
1364,333,1519,-309,281,1074
1419,442,1564,-379,221,1028
1505,593,1615,-451,148,972
1614,780,1670,-510,37,902
1788,934,1663,-520,-92,827
1944,1052,1641,-436,-132,779
2055,1126,1623,-293,-122,788
2153,1109,1613,-116,-119,858
2281,915,1628,108,-85,994
2260,649,1746,355,72,1206
2016,404,1904,474,247,1437
1784,203,2021,400,286,1589
1710,113,2110,187,254,1638
1675,117,2155,-95,217,1642
1650,204,2140,-361,109,1648
1620,370,2089,-609,21,1614
1674,524,2020,-782,11,1514
1854,676,2015,-845,60,1509
2013,829,2033,-876,171,1594
2085,944,1981,-911,277,1641
2159,1014,1866,-918,324,1604
2263,1032,1706,-878,342,1558
2327,1077,1532,-743,330,1583
2342,1182,1441,-578,330,1693
2211,1056,1388,-538,504,1861
2083,1039,1432,-557,605,1978
1915,1030,1330,-606,477,2098
1783,1070,1207,-608,342,2155
1634,1083,1062,-568,273,2136
1455,1094,975,-484,216,2167
1291,1102,907,-427,116,2173
1150,1076,865,-324,47,2119
1058,1051,864,-171,3,2035
1033,1014,876,-20,-26,1949
1045,986,880,116,-32,1875
1053,967,882,254,-12,1821
1059,948,895,377,6,1786
1061,935,901,469,2,1764
1017,934,910,551,-11,1738
958,941,925,623,-54,1691
947,953,935,690,-114,1633
950,946,949,783,-149,1581
932,914,1013,907,-130,1549
873,845,1125,1014,-70,1531
832,778,1235,1075,-50,1500
794,741,1299,1060,-7,1463
721,711,1356,1009,76,1427
621,695,1348,952,74,1416
572,705,1346,972,57,1247
555,684,1397,1059,35,995
595,674,1478,1064,-54,709
704,668,1539,947,-99,347
883,665,1567,859,-192,53
985,634,1621,788,-188,-58
953,654,1704,743,-118,-126
890,684,1739,682,-65,-277
876,701,1756,622,-50,-454
931,748,1732,562,-96,-565
1003,793,1698,528,-136,-660
1061,825,1699,519,-159,-761
1113,880,1727,518,-207,-829
1140,939,1774,520,-234,-884
1162,1028,1885,530,-225,-961
1226,1111,2032,520,-221,-1083
1350,1150,2156,482,-237,-1236
1468,1158,2255,451,-236,-1380
1470,1152,2317,405,-158,-1505
1403,1127,2344,333,-79,-1647
1303,1137,2347,206,-92,-1842
1330,1077,2185,50,-201,-2107
1422,944,1991,-45,-330,-2364
1546,762,1792,-67,-456,-2518
1569,598,1641,-41,-502,-2535
1500,427,1535,3,-535,-2444
1387,301,1526,53,-565,-2302
1276,222,1584,73,-562,-2122
1213,183,1672,66,-547,-1917
1102,171,1769,65,-506,-1742
986,173,1896,39,-444,-1644
912,188,1950,-45,-372,-1594
872,277,1961,-120,-279,-1553
935,358,1947,-174,-185,-1494
1155,438,1913,-173,-81,-1453
1333,506,1856,-144,80,-1346
1409,574,1832,-88,250,-1217
1432,601,1824,-24,345,-1131
1469,607,1838,26,334,-1079
1523,593,1809,37,282,-1050
1518,574,1783,67,222,-1030
1486,518,1750,97,120,-992
1450,471,1711,113,42,-953
1366,418,1683,133,-26,-911
1292,366,1672,137,-107,-887
1283,329,1657,129,-195,-875
1327,298,1651,120,-246,-856
1356,280,1638,117,-256,-805
1367,287,1601,119,-238,-710
1354,307,1541,145,-194,-585
1317,327,1494,209,-121,-458
1277,329,1455,291,-37,-343
1283,314,1436,370,34,-237
1310,274,1437,439,101,-136
1317,214,1468,492,180,-43
1282,176,1470,506,226,37
1240,182,1439,491,233,95
1241,174,1411,475,195,122
1253,154,1414,469,144,140
1221,130,1444,470,110,167
1197,107,1469,462,84,202
1189,111,1486,436,55,251
1197,80,1469,394,47,319
1202,93,1477,406,24,400
1160,78,1463,371,-2,495
1201,118,1446,342,64,449
1304,111,1439,317,136,443
1320,125,1452,300,181,613
1224,151,1480,327,230,775
1136,148,1559,354,252,819
1147,145,1656,326,209,826
1176,149,1711,261,155,854
1155,153,1772,190,109,873
1127,159,1839,85,41,857
1125,186,1850,-61,-49,794
1156,228,1814,-208,-175,702
1246,277,1753,-326,-299,631
1350,328,1678,-397,-359,631
1415,388,1605,-405,-328,672
1457,452,1595,-363,-269,753
1527,525,1663,-329,-237,874
1641,653,1789,-301,-202,979
1773,800,1936,-274,-148,1046
1914,932,2033,-250,-102,1103
2060,1043,2076,-210,-81,1161
2150,1124,2112,-142,-1,1208
2222,1054,2109,-35,93,1235
2259,971,2084,51,119,1314
2209,812,1992,119,130,1420
1951,625,1924,154,218,1527
1606,460,1887,106,251,1619
1369,348,1868,-2,196,1647
1232,308,1878,-150,143,1626
1176,331,1869,-322,122,1597
1200,428,1852,-466,139,1573
1292,540,1835,-558,211,1537
1444,684,1795,-621,277,1519
1578,800,1729,-659,323,1551
1633,939,1733,-667,370,1545
1666,1076,1674,-680,362,1515
1737,1143,1562,-619,314,1512
1763,1192,1524,-502,319,1542
1718,1170,1508,-384,350,1592
1713,1127,1482,-277,326,1623
1711,1053,1467,-202,294,1652
1649,961,1461,-128,297,1674
1530,874,1487,-61,292,1641
1409,770,1502,-64,241,1549
1357,699,1486,-121,166,1423
1340,656,1442,-198,109,1302
1329,635,1381,-271,82,1208
1293,645,1309,-322,63,1144
1274,694,1253,-333,20,1091
1258,752,1203,-286,-36,1017
1196,814,1199,-156,-91,927
1017,795,1269,-31,-151,861
868,753,1411,30,-264,816
758,676,1448,-173,-374,895
626,641,1461,-463,-435,868
616,601,1350,-643,-510,614
703,585,1294,-654,-481,217
837,590,1236,-736,-468,-50
985,611,1057,-869,-504,-82
1056,677,842,-901,-464,-43
1063,709,737,-806,-304,-69
1014,727,724,-682,-170,-113
961,761,638,-581,-134,-156
949,792,562,-402,-151,-277
1010,855,578,-189,-126,-387
1027,898,579,10,-73,-334
1055,957,569,195,4,-306
1140,1035,602,402,35,-256
1222,1101,698,629,105,-160
1215,1147,851,887,190,-104
1151,1090,1059,1152,213,-98
1126,1060,1282,1348,186,-118
1174,952,1523,1465,203,-164
1203,801,1805,1494,310,-239
1141,662,2048,1435,421,-350
1053,585,2131,1288,435,-521
1009,662,2103,1057,366,-719
1011,746,2001,821,271,-923
1094,806,1888,693,125,-1122
1235,856,1886,674,-16,-1274
1390,907,1979,695,-72,-1368
1526,946,2079,715,-75,-1416
1637,961,2186,704,-66,-1451
1744,974,2242,627,-42,-1493
1821,1024,2228,576,-14,-1540
1953,1029,2178,539,17,-1599
2101,948,2051,557,3,-1671
2168,797,1901,625,29,-1728
2130,612,1720,661,75,-1708
2069,424,1554,653,66,-1607
2038,292,1437,648,-31,-1436
1934,204,1406,671,-120,-1198
1737,168,1448,702,-145,-969
1492,193,1547,735,-142,-798
1257,231,1630,696,-203,-668
1198,275,1656,595,-212,-659
1184,309,1663,580,-140,-666
1195,418,1740,651,-132,-561
1120,445,1759,578,-124,-527
1157,464,1743,543,-125,-534
1238,493,1725,549,-61,-558
1270,494,1701,534,36,-569
1337,489,1671,512,54,-562
1376,463,1640,482,28,-562
1383,403,1634,438,16,-586
1409,348,1586,387,-15,-615
1453,338,1509,333,-60,-609
1451,340,1428,308,-99,-562
1438,340,1387,331,-146,-501
1409,317,1399,386,-182,-427
1340,288,1475,451,-192,-351
1255,263,1596,485,-199,-295
1243,246,1739,448,-230,-269
1282,250,1814,365,-276,-260
1354,251,1849,289,-298,-266
1419,244,1884,214,-289,-259
1493,245,1851,124,-269,-211
1563,230,1786,45,-242,-139
1595,224,1760,-6,-224,-43
1550,253,1747,-61,-225,77
1451,263,1754,-113,-232,187
1307,277,1767,-164,-243,265
1169,302,1752,-239,-268,309
1116,335,1721,-326,-316,332
1074,378,1653,-420,-348,345
1044,354,1562,-453,-370,332
1036,431,1546,-476,-427,364
1047,466,1400,-588,-333,294
1161,501,1314,-550,-128,125
1132,488,1347,-524,-55,232
1033,519,1424,-547,-65,169
1075,473,1502,-647,-335,-144
1225,411,1519,-762,-714,-389
1237,432,1466,-855,-890,-479
1178,496,1377,-899,-1000,-502
1185,558,1324,-861,-1084,-486
1251,590,1310,-767,-1085,-373
1336,638,1330,-665,-1000,-159
1402,640,1356,-560,-868,89
1424,632,1399,-434,-694,274
