ax,ay,az,gx,gy,gz
-19,-2027,-522,-19,-14,0
-28,-2022,-516,-18,-17,2
-38,-2023,-518,-20,-19,4
-31,-2023,-520,-25,-13,0
-26,-2035,-534,-30,-10,-5
-32,-2045,-548,-31,-10,-13
-22,-2042,-540,-29,-11,-21
-19,-2042,-539,-23,-16,-18
-13,-2033,-534,-24,-15,-21
16,-2027,-547,-35,-6,-26
13,-2046,-563,-44,3,-16
3,-2063,-585,-46,14,-18
13,-2062,-590,-38,26,-27
19,-2054,-587,-29,24,-16
-5,-2048,-571,-21,13,0
-23,-2037,-543,-16,7,-2
-35,-2018,-510,-17,9,-7
-41,-2001,-488,-30,12,-16
-55,-2000,-479,-54,16,-24
-58,-2029,-531,-77,22,-34
-36,-2054,-591,-75,24,-40
-15,-2054,-598,-49,13,-33
-16,-2049,-580,-29,9,-14
-29,-2050,-570,-15,3,1
-54,-2046,-554,-5,0,8
-66,-2044,-550,-8,5,5
-69,-2057,-564,-10,4,-1
-70,-2057,-553,-6,4,-2
-59,-2053,-556,2,9,-6
-36,-2040,-533,12,-2,-6
-29,-2023,-510,19,-8,-1
-26,-2010,-484,12,-10,1
-33,-2010,-474,-5,-9,-5
-35,-2020,-489,-16,-9,-14
-27,-2023,-501,-27,-8,-18
-26,-2028,-514,-31,-5,-14
-31,-2047,-522,-35,-13,0
-39,-2051,-537,-34,-12,2
-64,-2066,-540,-32,-16,-1
-55,-2068,-549,-29,-19,-7
-39,-2069,-551,-26,-29,-14
-32,-2064,-552,-24,-26,-12
-33,-2061,-552,-19,-14,-8
-46,-2057,-548,-12,-21,-8
-42,-2039,-535,-9,-32,-16
-31,-2024,-526,-10,-36,-22
-28,-2010,-509,-16,-35,-24
-11,-2001,-513,-38,-11,-36
19,-2013,-549,-65,9,-48
35,-2017,-572,-76,14,-48
21,-2033,-566,-75,30,-45
7,-2049,-571,-80,62,-59
18,-2052,-583,-75,38,-62
25,-2048,-574,-62,-13,-39
20,-2050,-576,-57,-30,-20
3,-2057,-581,-51,-18,-20
-1,-2073,-621,-49,20,-30
-4,-2098,-654,-26,28,-29
-2,-2078,-615,24,10,-5
-10,-2043,-554,55,-17,24
-13,-2012,-507,59,-29,37
-23,-2006,-498,35,-29,39
-24,-2018,-514,7,-18,28
-15,-2022,-541,-7,14,6
-13,-2023,-555,-5,24,3
-22,-2065,-563,33,3,28
-42,-2010,-548,95,-9,56
-35,-2006,-513,34,-27,44
-17,-2013,-533,13,-17,22
-42,-2028,-537,6,-8,18
-15,-2022,-563,-15,13,-26
-17,-2038,-569,-3,26,-13
-47,-2054,-553,15,-17,22
-32,-2015,-529,18,-4,-29
-29,-2017,-514,1,-6,-28
-63,-2028,-506,-5,-23,-3
-77,-2048,-526,-16,5,-41
-53,-2032,-526,-12,0,-53
-43,-2024,-498,-14,-19,-36
-18,-2012,-501,-28,-11,-48
-20,-2014,-524,-36,-13,-40
-20,-2040,-546,-48,-41,-12
4,-2049,-551,-42,-34,-11
15,-2032,-551,-35,-27,-14
10,-2036,-545,-32,-26,-8
10,-2021,-522,-25,-30,-8
23,-2003,-489,-32,-30,-10
39,-2001,-486,-53,-22,-6
39,-2011,-504,-77,-17,0
25,-2033,-532,-85,-5,-1
17,-2030,-530,-80,-6,-8
9,-2017,-515,-78,-9,-8
-24,-2026,-517,-86,-17,-1
-43,-2049,-538,-95,-15,-4
-48,-2055,-561,-92,-7,-13
-62,-2052,-562,-87,-8,-20
-69,-2060,-572,-88,-10,-24
-64,-2056,-568,-85,-13,-32
-74,-2044,-565,-82,-19,-37
-82,-2056,-578,-87,-28,-35
-87,-2052,-568,-80,-35,-36
-105,-2023,-534,-71,-40,-43
-102,-2013,-518,-78,-47,-57
-74,-2024,-511,-91,-42,-99
-44,-1947,-518,-97,-34,-138
-40,-2004,-535,-127,-53,-103
-49,-1979,-536,-122,-72,-98
-71,-1953,-500,-118,-58,-131
-80,-1916,-499,-168,-6,-161
-76,-1952,-497,-227,-20,-201
-63,-1904,-462,-222,28,-263
-12,-1945,-546,-301,118,-337
81,-1959,-649,-353,150,-423
141,-1969,-681,-343,188,-413
170,-1994,-739,-333,181,-354
197,-2024,-799,-291,172,-315
205,-2034,-790,-210,138,-239
203,-2012,-735,-145,81,-153
192,-2015,-718,-110,49,-109
203,-2022,-741,-77,-16,-57
215,-2008,-732,-34,-97,34
181,-2006,-702,-5,-124,123
145,-2010,-669,0,-84,151
114,-2015,-649,-5,-24,132
68,-2030,-643,-11,-1,117
42,-2038,-626,-11,-7,108
34,-2033,-625,-4,-15,97
51,-2030,-631,4,-33,106
52,-2021,-617,4,-46,134
35,-2055,-629,-16,-43,142
39,-2066,-651,-20,-26,98
53,-2057,-677,-8,6,49
60,-2059,-674,6,13,48
62,-2042,-662,32,-3,64
47,-2027,-658,49,-10,94
39,-2058,-657,31,-29,120
40,-2038,-645,34,-14,107
17,-2033,-640,27,3,70
3,-2033,-642,14,5,38
-1,-2030,-650,9,13,15
7,-2018,-644,13,20,1
9,-2015,-651,15,24,-3
16,-2013,-661,11,18,-4
27,-2010,-669,11,20,-14
50,-1993,-678,11,34,-16
64,-2016,-675,22,13,17
80,-1991,-654,48,10,15
75,-1983,-649,55,36,11
65,-1982,-644,47,24,46
67,-2010,-645,39,18,83
75,-2031,-662,36,40,79
47,-2016,-660,49,56,69
23,-2020,-653,47,43,68
35,-2036,-672,50,33,69
39,-2036,-676,65,34,76
30,-2037,-655,79,21,101
27,-2057,-637,96,3,103
16,-2004,-608,132,7,78
15,-1995,-569,93,-1,72
23,-1994,-563,65,-3,67
23,-2004,-567,49,27,49
25,-2003,-583,25,44,24
32,-2014,-603,13,43,19
45,-2027,-620,12,35,30
50,-2023,-618,19,29,42
24,-2016,-606,27,18,64
1,-2035,-597,30,6,82
-16,-2050,-601,40,1,76
-17,-2047,-609,51,-8,66
-19,-2026,-580,60,-55,79
-23,-2006,-548,57,-60,93
-12,-2018,-551,39,-42,84
-6,-2016,-557,21,-19,63
-13,-2019,-568,8,-2,44
-13,-2037,-591,-5,17,25
-1,-2044,-595,2,11,24
10,-2035,-581,21,-13,38
-5,-2028,-571,25,-29,52
-9,-2032,-567,22,-24,48
-10,-2032,-565,18,-13,30
-9,-2039,-589,11,-15,18
-7,-2043,-599,11,-33,25
-7,-2036,-584,19,-21,29
-16,-2036,-582,18,-8,20
-26,-2040,-586,11,-11,16
-20,-2040,-591,9,-8,12
-19,-2037,-603,10,-11,9
2,-2033,-610,14,-5,4
16,-2026,-606,20,5,2
8,-2024,-615,24,11,3
3,-2042,-640,23,11,6
6,-2032,-628,37,2,5
5,-2010,-603,49,4,6
4,-2002,-595,48,7,8
6,-1999,-596,46,11,4
8,-2004,-597,42,15,2
16,-2011,-593,46,7,15
13,-2010,-565,53,1,37
6,-2003,-547,56,0,52
-7,-2001,-532,52,-3,54
-9,-2006,-531,44,-3,50
1,-2010,-544,32,5,44
4,-2020,-557,28,14,40
1,-2028,-559,30,11,47
-22,-2025,-542,28,-1,54
-23,-1996,-534,17,-10,63
-24,-2078,-563,-2,-30,98
-15,-2040,-561,15,-35,57
19,-2025,-560,14,-3,10
49,-2042,-578,-9,0,13
47,-2050,-577,-6,14,10
53,-2056,-594,-9,27,-3
45,-2068,-609,1,10,11
26,-2068,-599,23,2,22
5,-2062,-595,34,13,9
-12,-2066,-599,44,30,-17
-13,-2042,-599,54,50,-55
-3,-2024,-599,58,54,-77
-10,-2027,-595,67,42,-56
-21,-2009,-565,90,21,-14
-27,-1994,-526,103,-3,24
-27,-1969,-496,100,-20,38
-42,-1954,-461,83,-27,42
-43,-1945,-464,39,4,31
-51,-2006,-499,-17,18,8
-41,-2006,-535,-4,21,-10
-33,-2004,-534,13,6,19
-33,-2017,-534,12,-27,52
-44,-2016,-536,13,-39,59
-30,-2030,-537,-5,-46,47
7,-2054,-573,-12,-10,21
2,-2058,-583,-8,3,4
16,-2070,-596,-4,18,-8
28,-2083,-607,7,12,-6
24,-2077,-596,24,-22,21
3,-2072,-580,41,-43,51
-16,-2067,-560,53,-59,69
-29,-2055,-530,63,-58,77
-40,-2041,-496,60,-47,69
-59,-2048,-495,52,-44,53
-64,-2032,-493,52,-83,55
-81,-2048,-495,53,-129,80
-51,-2036,-532,59,-156,100
-21,-2007,-470,79,-194,122
0,-1974,-459,49,-103,101
10,-2000,-489,1,-44,58
8,-2030,-514,-21,13,16
9,-2050,-550,-27,35,-1
5,-2060,-546,-2,-11,26
-4,-2033,-503,27,-47,70
-9,-2016,-462,29,-62,93
-21,-2008,-450,8,-50,79
-39,-2025,-470,-25,-9,42
-41,-2058,-497,-46,13,6
-23,-2064,-515,-46,12,-3
-10,-2065,-522,-37,1,15
-4,-2067,-512,-29,-17,41
-18,-2064,-501,-29,-15,54
-40,-2074,-517,-46,-10,50
-48,-2095,-559,-63,-2,30
-52,-2107,-590,-65,2,12
-64,-2119,-607,-54,-2,10
-83,-2123,-619,-38,-16,13
-93,-2117,-615,-24,-30,11
-91,-2106,-606,-15,-29,8
-96,-2093,-593,-11,-27,6
-92,-2082,-581,-8,-25,-9
-79,-2076,-587,-3,-24,-28
-48,-2057,-574,8,-24,-35
-43,-2026,-546,18,-21,-39
-41,-2011,-533,11,-19,-40
-37,-2008,-530,1,-29,-30
-28,-1990,-509,-2,-31,-27
-18,-1975,-500,-13,-16,-35
-21,-1987,-518,-26,-16,-33
-17,-1997,-528,-25,-23,-24
7,-1984,-519,-20,-21,-22
14,-1982,-519,-27,-14,-8
4,-1995,-525,-35,-12,9
0,-2016,-548,-40,-5,13
-12,-2020,-558,-36,7,9
-34,-2026,-551,-28,5,14
-63,-2041,-542,-20,-3,17
-74,-2047,-533,-14,-14,15
-76,-2037,-507,-14,-22,10
-89,-2034,-490,-25,-26,2
-79,-2053,-505,-51,-16,-16
-50,-2089,-542,-70,-2,-37
-39,-2103,-579,-69,4,-54
-31,-2122,-606,-59,-1,-68
-35,-2118,-637,-40,-6,-83
-34,-2068,-633,-40,-11,-73
-17,-2148,-640,-60,-44,-38
-10,-2084,-621,25,-34,-27
-29,-2068,-596,49,-20,-24
-24,-2056,-579,48,-23,-27
-43,-2050,-562,65,-15,-26
-50,-2040,-555,54,-21,-32
-16,-2035,-543,46,-24,-32
-3,-2030,-525,50,-28,-20
-9,-2018,-503,46,-23,-20
-37,-2022,-516,29,-22,-22
-64,-2038,-521,22,-39,-20
-45,-2033,-501,27,-45,-25
-42,-2007,-475,31,-46,-27
-44,-2000,-477,22,-43,-33
-29,-1993,-465,12,-51,-38
-26,-1981,-454,7,-65,-36
-10,-1964,-425,-1,-69,-34
5,-1946,-409,-10,-81,-24
2,-1939,-396,-20,-96,-3
-2,-1911,-361,-33,-99,6
14,-1890,-363,-77,-84,8
46,-1922,-414,-119,-45,-12
82,-1954,-515,-165,-6,-42
114,-2021,-625,-187,13,-42
62,-2067,-686,-156,-11,-17
53,-2077,-681,-101,-19,6
78,-2045,-651,-48,4,29
7,-2056,-622,-16,-46,87
-72,-2076,-596,2,-70,116
-118,-2061,-549,15,-60,91
-153,-2047,-506,2,-64,69
-162,-2062,-507,-30,-52,51
-146,-2084,-529,-54,-51,24
-110,-2074,-531,-55,-61,9
-83,-2066,-526,-57,-63,12
-62,-2066,-521,-64,-56,10
-70,-2067,-535,-70,-47,1
-81,-2076,-556,-68,-59,-11
-71,-2084,-574,-67,-65,-22
-52,-2086,-601,-66,-61,-32
-42,-2094,-623,-58,-64,-36
-29,-2091,-632,-43,-67,-38
-9,-2076,-620,-29,-63,-40
8,-2057,-615,-15,-58,-39
10,-2053,-603,-4,-61,-31
15,-2036,-584,3,-59,-26
26,-2033,-577,6,-61,-18
7,-2038,-571,12,-57,-9
-32,-2018,-548,22,-58,-2
-56,-2005,-526,24,-67,1
-52,-1996,-504,11,-66,-9
-23,-1985,-499,-16,-45,-26
-17,-1990,-525,-37,-33,-34
-20,-2014,-557,-49,-37,-34
-8,-2024,-577,-43,-49,-29
13,-2008,-576,-26,-57,-21
16,-2009,-558,-20,-62,-3
20,-2002,-548,-24,-60,4
33,-2003,-555,-35,-46,0
34,-2011,-575,-46,-34,-1
23,-2019,-593,-47,-23,2
17,-2030,-599,-41,-19,7
16,-2033,-595,-38,-17,10
14,-2035,-592,-34,-17,13
15,-2039,-596,-31,-15,13
23,-2055,-608,-30,-3,7
32,-2052,-606,-25,13,1
27,-2048,-608,-16,19,4
26,-2050,-609,-12,20,10
18,-2061,-608,-7,22,20
-1,-2061,-610,5,24,34
-38,-2067,-590,18,19,47
-76,-2066,-569,26,10,52
-108,-2061,-556,30,6,48
-117,-2056,-528,25,6,33
-121,-2055,-527,11,14,11
-120,-2056,-546,-2,10,-7
-103,-2063,-567,-5,7,-23
-57,-2058,-576,-2,5,-31
-25,-2042,-570,5,10,-31
-8,-2023,-566,8,13,-30
5,-2015,-557,6,6,-27
14,-2013,-553,6,3,-24
13,-2000,-547,8,4,-18
5,-2002,-549,7,2,-5
1,-2009,-553,7,-1,6
-14,-2012,-549,10,0,10
-20,-2008,-532,13,4,15
-31,-1999,-508,10,5,24
-52,-2003,-503,-1,-3,25
-59,-2018,-511,-12,-7,20
-67,-2024,-520,-14,-9,14
-83,-2031,-522,-13,-13,9
-83,-2033,-529,-13,-16,1
-73,-2036,-537,-21,-11,-8
-55,-2054,-562,-29,-7,-12
-36,-2057,-567,-27,-14,-13
-30,-2047,-557,-21,-17,-16
-20,-2055,-576,-22,-18,-15
2,-2069,-594,-13,-21,-5
4,-2061,-575,5,-18,9
-4,-2041,-549,10,-13,10
-5,-2042,-553,-3,-9,4
2,-2062,-573,-11,-8,1
3,-2054,-568,-4,-7,0
-4,-2045,-560,-2,-6,-1
-11,-2056,-573,-8,-9,-1
-6,-2063,-577,-6,-9,-2
-16,-2057,-571,1,-3,-8
-15,-2043,-570,4,-4,-12
-15,-2060,-595,-1,-4,-12
-10,-2069,-601,7,-1,-16
-6,-2044,-591,23,8,-20
-5,-2026,-569,30,7,-17
-9,-2021,-550,31,1,-9
-12,-2005,-522,30,1,-7
-27,-2005,-519,17,4,-7
-40,-2011,-526,4,1,-7
-48,-2000,-515,0,-2,-12
-57,-1996,-522,-8,-6,-17
-33,-1997,-533,-21,2,-27
0,-1995,-544,-30,17,-36
13,-1994,-551,-34,19,-35
19,-1997,-559,-37,14,-29
32,-1989,-550,-30,10,-18
39,-1971,-537,-26,12,-1
23,-1977,-531,-33,4,20
25,-1989,-538,-44,7,28
24,-1997,-551,-51,16,26
7,-2009,-566,-57,16,32
-3,-2024,-582,-59,13,40
-27,-2035,-558,-51,3,40
-29,-2016,-550,-50,7,29
-30,-2052,-591,-62,6,29
-21,-2064,-613,-51,3,27
-11,-2061,-600,-32,21,16
-9,-2054,-593,-26,27,15
-13,-2064,-577,-19,26,16
-25,-2059,-569,-13,23,15
-32,-2058,-560,-15,16,21
-31,-2055,-545,-14,6,31
-39,-2044,-539,-14,13,29
-55,-2052,-540,-23,19,20
-58,-2072,-553,-30,23,10
-55,-2073,-567,-23,16,4
-71,-2066,-552,-10,4,8
-86,-2079,-574,-6,-1,12
-67,-2094,-596,-6,-13,12
-46,-2082,-584,11,-19,4
-32,-2059,-544,24,-19,-8
-21,-2034,-517,21,-11,-12
-30,-2043,-542,8,10,-18
-19,-2055,-560,0,-1,-26
3,-2031,-552,8,-4,-27
3,-2003,-529,15,-14,-19
-4,-1997,-511,13,-25,-11
-11,-2007,-535,-2,-2,-7
-11,-2038,-587,-25,13,-13
-5,-2053,-616,-18,8,-21
1,-2045,-610,9,5,-22
2,-2021,-572,30,-12,-7
-9,-1999,-527,37,-22,11
-17,-1989,-514,23,-20,16
-17,-1996,-524,0,-14,8
-23,-2007,-530,-6,-9,-5
-24,-1998,-520,-4,-7,-13
-31,-1998,-522,-11,0,-9
-28,-2021,-547,-28,0,-5
-22,-2029,-559,-30,0,-9
-19,-2025,-561,-26,-1,-14
-20,-2022,-574,-26,2,-17
-18,-2045,-600,-31,4,-12
-8,-2063,-613,-21,-1,-6
-9,-2042,-595,-2,-4,-4
-18,-2043,-591,8,-8,-2
-1,-2047,-589,16,-10,2
-3,-2044,-577,22,-16,23
-15,-2031,-546,31,-18,34
-27,-2007,-510,29,-20,28
-29,-2001,-497,9,-17,17
-30,-2017,-519,-22,-3,7
-27,-2041,-548,-42,3,-2
-27,-2052,-571,-42,8,-12
-20,-2071,-604,-36,6,-16
-9,-2078,-612,-21,0,-13
-6,-2071,-605,1,-1,-9
-10,-2066,-595,15,-6,0
-8,-2050,-571,26,-8,2
-6,-2043,-546,31,-6,-1
-14,-2040,-541,25,-4,2
-22,-2043,-542,19,-4,7
-27,-2042,-536,16,-4,6
-15,-2040,-538,11,5,5
-27,-2046,-548,8,13,7
-31,-2046,-552,13,12,4
-24,-2046,-546,19,5,-1
-17,-2032,-538,21,-1,-3
-7,-2016,-533,23,-3,-6
1,-2006,-516,22,-1,-9
-4,-2001,-505,11,0,-9
-16,-2008,-516,0,1,-8
-8,-2007,-518,-4,-2,-9
-7,-1991,-502,-8,-1,-8
-5,-1997,-512,-19,3,2
-5,-2011,-529,-30,7,7
-5,-2010,-532,-32,12,6
-15,-2026,-550,-38,9,9
-29,-2050,-564,-37,0,11
-34,-2048,-569,-27,2,7
-40,-2049,-568,-24,-1,4
-39,-2061,-579,-20,-6,6
-42,-2060,-573,-10,-10,5
-34,-2047,-559,-8,-3,-6
-16,-2048,-568,-9,2,-13
-4,-2041,-551,0,-9,-9
-6,-2023,-529,8,-13,-4
-8,-2015,-510,4,-18,0
0,-2012,-507,-8,-15,3
-2,-2015,-512,-22,-10,3
-15,-2027,-533,-35,-4,3
-19,-2055,-580,-42,3,-6
5,-2069,-599,-29,-3,-3
0,-2054,-581,-6,-4,11
-19,-2039,-563,2,-17,20
-10,-2040,-555,3,-19,18
-4,-2035,-547,5,-8,14
-7,-2019,-520,3,-5,9
-18,-2013,-509,-8,-5,1
-18,-2030,-540,-32,2,-7
-1,-2057,-579,-41,12,-11
3,-2047,-573,-20,8,-3
-16,-2023,-537,-2,-7,10
-24,-2007,-503,-1,-19,11
-28,-2012,-527,-27,-7,-1
-10,-2065,-598,-49,-1,-10
6,-2074,-615,-25,5,-11
-13,-2043,-579,9,-7,2
-27,-2022,-528,21,-34,21
-20,-1991,-476,15,-46,24
-26,-2000,-508,-29,-20,8
-11,-2068,-601,-66,7,-11
0,-2101,-637,-41,17,-14
-14,-2059,-591,16,-1,-5
-18,-2006,-513,44,-34,11
-22,-1974,-451,32,-56,27
-19,-1976,-445,-10,-37,13
-1,-2009,-511,-62,9,-21
7,-2064,-594,-82,19,-29
4,-2078,-616,-52,11,-21
3,-2042,-578,-10,-18,-4
-7,-2019,-532,5,-49,25
-25,-2020,-517,-10,-43,31
-17,-2055,-572,-43,-4,9
-6,-2089,-625,-47,11,-7
-7,-2081,-619,-20,13,-15
-10,-2058,-592,10,-12,-2
-19,-2034,-549,28,-33,18
-19,-2028,-536,15,-21,23
-19,-2048,-552,-8,-16,16
-25,-2058,-559,-10,-7,-1
-26,-2045,-563,-6,0,-19
-12,-2047,-563,-2,-10,-18
4,-2042,-556,3,-12,-3
2,-2035,-544,0,-13,8
-11,-2022,-526,-4,-19,5
-17,-2028,-548,-18,-5,-9
-3,-2063,-599,-26,12,-19
9,-2067,-601,-1,10,-16
3,-2032,-558,29,-8,-6
-18,-2006,-512,29,-26,5
-21,-2021,-527,2,-19,4
6,-2045,-558,-15,-6,-7
4,-2040,-562,-7,5,-7
-10,-2021,-538,4,-4,-5
-16,-2014,-520,4,-14,-2
-29,-2025,-541,-9,-14,0
3,-2045,-563,-17,-9,-1
18,-2034,-555,-4,-3,-1
-4,-2013,-535,3,-8,6
-15,-2008,-497,0,-21,12
-28,-2004,-503,-22,-7,8
-21,-2049,-567,-52,5,-1
-3,-2080,-600,-46,7,-6
-12,-2063,-581,-13,10,-8
-28,-2030,-541,8,-8,-4
-37,-2021,-516,1,-17,2
-28,-2047,-558,-28,3,-6
-10,-2070,-596,-33,11,-15
3,-2063,-588,-9,12,-19
-7,-2035,-554,14,-7,-11
-20,-2014,-509,23,-31,5
-22,-2013,-513,6,-17,6
-2,-2040,-548,-18,-3,-1
3,-2051,-565,-18,6,-8
-14,-2047,-553,-6,1,-10
-29,-2035,-537,5,-22,-2
-35,-2028,-534,0,-29,3
-32,-2042,-544,-18,-23,2
-31,-2059,-562,-24,-19,-5
-29,-2059,-566,-20,-17,-22
-11,-2054,-572,-12,-20,-30
6,-2052,-576,0,-15,-26
19,-2035,-558,13,-16,-17
17,-2013,-523,17,-18,-10
6,-2006,-522,5,-17,-11
5,-2017,-534,-10,-17,-12
14,-2023,-543,-16,-7,-17
18,-2028,-562,-17,0,-19
20,-2036,-561,-14,-6,-12
17,-2039,-554,-3,-13,-1
15,-2021,-541,5,-17,9
6,-2008,-529,1,-18,17
-6,-2017,-535,-11,-12,18
-6,-2030,-536,-14,-5,14
-16,-2028,-537,-15,-5,9
-26,-2038,-547,-20,-15,13
-22,-2053,-566,-16,-18,16
-6,-2042,-551,-9,-17,15
-13,-2032,-530,-8,-11,10
-15,-2030,-530,-17,-13,5
-9,-2037,-538,-25,-13,1
-6,-2043,-543,-23,-9,4
-6,-2041,-538,-20,-16,8
-15,-2048,-554,-23,-16,3
-13,-2058,-573,-23,-19,-2
3,-2059,-573,-17,-16,-5
11,-2057,-579,-7,-12,-4
4,-2046,-561,4,-17,8
-2,-2036,-539,13,-25,14
-10,-2031,-534,13,-30,9
-6,-2025,-524,7,-28,5
9,-2018,-516,1,-13,1
0,-2004,-509,-4,-7,0
-21,-2015,-526,-22,-11,0
-14,-2037,-554,-36,-12,-3
10,-2038,-566,-28,-12,-6
8,-2032,-548,-15,-12,-3
-6,-2033,-555,-14,-11,-1
-7,-2041,-562,-11,-18,-1
9,-2040,-553,-5,-15,4
10,-2028,-541,-3,-9,9
-7,-2029,-533,-4,-12,14
-19,-2034,-542,-5,-13,14
-18,-2036,-543,-5,-11,10
-12,-2029,-528,-5,-14,10
-19,-2026,-529,-13,-19,11
-21,-2041,-546,-24,-16,3
-6,-2054,-565,-27,-12,-2
1,-2049,-565,-19,-16,-1
-3,-2048,-562,-15,-18,0
-13,-2053,-566,-11,-14,1
-4,-2044,-563,-9,-9,-2
10,-2041,-553,-8,-9,-2
15,-2040,-548,-9,-6,-4
6,-2036,-549,-8,-7,-4
-10,-2042,-557,-6,-7,-4
-2,-2042,-567,-6,-13,-3
5,-2042,-553,-1,-20,6
1,-2025,-538,0,-8,6
-14,-2027,-547,-7,3,-2
-15,-2042,-566,-11,-3,-7
-5,-2038,-551,-3,-6,-10
0,-2017,-532,-1,-5,-10
-2,-2028,-544,-12,-7,-2
-4,-2040,-554,-12,-11,1
-2,-2022,-538,-2,-11,-1
-11,-2023,-533,-3,-10,2
-1,-2025,-542,-11,-7,7
5,-2028,-541,-8,-3,11
-13,-2022,-531,-5,-4,12
-22,-2038,-547,-12,-6,12
-10,-2043,-550,-11,-14,12
-8,-2032,-538,-5,-13,13
-12,-2044,-551,-7,-10,15
-2,-2053,-560,-7,-6,8
17,-2047,-563,1,11,-5
16,-2031,-544,6,21,-14
-3,-2028,-530,5,18,-12
-4,-2036,-531,1,11,-12
3,-2034,-522,1,1,-8
-4,-2033,-514,-6,-1,0
-6,-2045,-534,-20,3,2
-9,-2051,-548,-24,4,-3
-15,-2051,-555,-22,7,-9
-18,-2059,-567,-19,6,-15
-12,-2060,-564,-9,-3,-18
-14,-2052,-555,3,-12,-17
-8,-2041,-550,5,-9,-16
7,-2039,-541,3,-8,-19
15,-2025,-536,0,-3,-20
27,-2024,-535,-7,-1,-15
22,-2028,-541,-11,1,-8
8,-2035,-555,-12,-3,-5
7,-2042,-555,-10,-4,-1
1,-2038,-550,-7,-5,7
-13,-2044,-552,-6,-6,12
-13,-2056,-571,-6,-2,8
-12,-2050,-565,0,0,4
-9,-2055,-558,8,2,4
-8,-2054,-563,10,-1,5
-12,-2042,-546,17,-9,12
-19,-2030,-532,18,-11,16
-18,-2026,-521,9,-14,11
-6,-2022,-524,0,-14,2
2,-2020,-529,-8,-8,-4
3,-2020,-526,-13,-4,-10
10,-2017,-530,-14,-6,-5
9,-2011,-535,-15,-6,0
7,-2019,-548,-16,-10,11
11,-2021,-550,-15,-13,15
17,-2017,-552,-15,-5,12
7,-2037,-572,-20,-1,11
13,-2053,-589,-15,3,14
15,-2048,-583,0,12,13
5,-2037,-562,13,11,17
-1,-2036,-541,17,8,25
-3,-2030,-521,16,1,28
-4,-2035,-510,10,-2,31
-24,-2033,-503,2,-4,33
-35,-2041,-509,-6,-3,28
-33,-2054,-528,-10,-1,21
-26,-2059,-529,-7,1,15
-26,-2047,-530,-6,-2,13
-30,-2054,-535,-10,-4,11
-15,-2062,-547,-12,-5,8
-5,-2056,-546,-7,-3,4
-7,-2059,-549,-6,-9,6
3,-2054,-540,1,-12,11
5,-2034,-524,8,-14,12
-5,-2031,-521,2,-14,15
-6,-2048,-530,-11,-13,14
0,-2048,-534,-11,-7,3
3,-2039,-541,-11,-6,-2
7,-2043,-538,-6,-6,2
6,-2041,-540,-2,1,2
-2,-2041,-541,0,5,4
-10,-2039,-541,-1,1,1
-12,-2046,-532,-1,-2,6
-18,-2049,-535,-1,-3,9
-10,-2047,-531,2,-7,6
-16,-2045,-530,-1,-6,7
-19,-2053,-533,-5,-9,5
-16,-2050,-530,-1,-13,2
-20,-2041,-517,1,-15,3
-24,-2049,-522,-4,-14,7
-17,-2044,-527,-6,-9,0
-9,-2048,-539,-10,-4,-12
-3,-2050,-551,-12,-5,-11
-3,-2049,-543,-4,-12,-3
-6,-2044,-534,1,-18,4
-11,-2052,-545,-1,-14,7
-5,-2063,-557,-2,-12,4
-9,-2066,-564,4,-9,-1
-23,-2070,-568,12,-2,-9
-11,-2057,-564,23,2,-10
2,-2032,-530,32,-6,-1
4,-2016,-504,30,-13,1
-1,-2008,-492,17,-13,0
0,-2016,-500,5,-9,-1
9,-2017,-496,-4,-8,-3
2,-2013,-498,-11,-5,-7
-13,-2038,-526,-23,-3,-9
0,-2061,-556,-21,-1,-9
-1,-2044,-533,-4,-11,-1
-8,-2034,-519,-5,-12,2
-8,-2052,-544,-18,-6,-2
7,-2069,-559,-16,0,-7
6,-2066,-554,-3,1,-7
-8,-2060,-549,9,-9,0
-8,-2062,-541,17,-19,10
0,-2041,-509,24,-25,14
-12,-2028,-486,17,-16,9
-24,-2034,-495,-7,-7,-2
-15,-2057,-520,-21,0,-11
-6,-2059,-535,-17,4,-12
-11,-2059,-539,-3,-6,-13
-5,-2049,-527,11,-8,-16
-9,-2050,-523,14,-6,-16
-16,-2052,-515,13,-5,-24
-18,-2042,-512,8,-4,-32
-2,-2033,-515,-2,-13,-32
10,-2040,-528,-4,-19,-24
6,-2045,-533,1,-20,-15
9,-2040,-532,5,-20,-12
16,-2032,-521,6,-19,-7
14,-2032,-524,1,-8,-1
11,-2036,-532,-2,-5,1
8,-2049,-538,-3,-5,1
12,-2048,-540,4,-6,1
2,-2041,-538,11,-4,2
-2,-2042,-519,13,-2,4
-6,-2033,-512,11,-3,3
-14,-2038,-520,6,-4,0
-13,-2039,-504,5,-4,-4
-9,-2028,-492,1,-6,-7
-6,-2033,-495,-11,-7,-10
2,-2032,-513,-19,-2,-16
-2,-2032,-523,-17,-3,-17
-5,-2037,-532,-17,-4,-15
7,-2039,-543,-13,-4,-18
21,-2031,-534,-7,-6,-15
28,-2018,-523,-7,-5,-6
18,-2020,-516,-14,-5,4
12,-2031,-524,-19,-9,9
8,-2038,-538,-17,-6,11
9,-2045,-541,-11,-4,17
3,-2054,-537,-9,-1,21
-8,-2056,-535,-3,-4,17
-5,-2052,-532,1,-3,11
-2,-2043,-516,-1,-1,7
-1,-2041,-510,-5,-4,4
4,-2039,-507,-7,-3,7
-2,-2039,-504,-6,-5,11
-8,-2037,-500,-6,-12,8
-8,-2038,-506,-8,-5,5
-11,-2032,-501,-11,-12,8
-10,-2034,-495,-18,-15,6
-7,-2049,-514,-27,-8,-3
-3,-2049,-525,-30,-4,-4
-9,-2047,-527,-29,-6,-4
-3,-2053,-532,-30,-8,-8
12,-2069,-558,-28,-2,-6
21,-2068,-569,-13,-2,-2
13,-2058,-546,5,-11,3
4,-2049,-533,14,-13,7
11,-2047,-529,15,-10,11
10,-2046,-534,20,-7,12
14,-2029,-512,24,-4,10
15,-2018,-489,21,-4,15
6,-2009,-461,20,-13,24
-6,-2001,-452,5,-10,26
-15,-2012,-467,-17,-2,18
-13,-2030,-504,-34,8,12
-14,-2063,-546,-42,14,4
-16,-2071,-566,-28,11,1
-16,-2067,-568,-6,-3,5
-8,-2053,-553,9,-19,13
-9,-2040,-528,16,-25,16
0,-2030,-497,14,-29,15
2,-2022,-484,2,-27,8
4,-2025,-486,-17,-22,7
13,-2051,-502,-34,-21,13
20,-2061,-522,-38,-18,16
22,-2069,-538,-33,-16,20
24,-2075,-539,-25,-15,27
3,-2054,-540,-14,-14,31
-11,-2052,-511,-20,-34,89
-51,-2147,-540,-23,-50,100
-24,-2067,-526,25,-22,4
19,-2035,-546,23,-69,8
-17,-2051,-502,30,-152,86
-4,-2017,-482,16,-52,57
26,-2006,-495,-15,2,18
1,-2049,-531,-36,36,2
-17,-2075,-566,-35,48,-31
1,-2070,-572,-14,11,-36
2,-2055,-547,14,-23,18
-9,-2037,-518,27,-26,47
-19,-2035,-499,20,-8,25
-25,-2028,-492,8,9,-5
-33,-2029,-488,-6,18,-12
-34,-2031,-486,-11,13,-6
-31,-2024,-478,-9,16,-3
-28,-2018,-488,-19,17,-6
0,-2027,-505,-36,22,-10
10,-2036,-526,-43,32,-9
-7,-2059,-554,-35,34,-2
-15,-2064,-567,-13,13,6
-21,-2055,-547,10,-12,15
-19,-2043,-519,15,-28,21
-17,-2038,-509,9,-23,24
-15,-2035,-507,-3,-6,19
-19,-2040,-511,-9,7,10
-20,-2045,-510,-10,2,8
-19,-2045,-510,-5,-9,14
-22,-2042,-504,-3,-20,19
-10,-2040,-500,-6,-16,18
-5,-2045,-504,-18,1,9
-15,-2047,-514,-28,10,-6
-12,-2053,-538,-34,17,-16
-7,-2075,-554,-31,15,-8
-5,-2059,-562,-21,5,2
-8,-2082,-551,-13,-11,39
-10,-2093,-555,1,-26,36
3,-2041,-516,24,-4,-10
7,-2046,-515,9,-1,-10
-7,-2055,-506,3,-3,6
-14,-2048,-501,5,3,4
-12,-2041,-510,-1,-1,18
-18,-2044,-520,-3,-10,30
-25,-2058,-530,-2,-8,16
-9,-2037,-522,8,6,-16
4,-2030,-510,12,12,-19
1,-2026,-503,16,10,-10
8,-2011,-492,10,15,-12
2,-2011,-495,-4,18,-4
-14,-2024,-506,-11,8,15
-23,-2045,-513,-7,10,28
-19,-2041,-521,6,18,23
-22,-2046,-518,9,11,29
-18,-2046,-506,0,2,28
-11,-2028,-490,-3,5,17
-12,-2028,-496,-16,0,18
-10,-2042,-502,-19,-5,25
-12,-2050,-518,-15,0,28
-8,-2050,-522,-8,-6,36
-7,-2057,-511,3,-8,41
-12,-2033,-507,6,7,18
-22,-2030,-499,-3,8,11
-29,-2042,-498,-14,-4,22
-30,-2047,-506,-15,-4,15
-30,-2045,-511,-12,-17,22
-27,-2059,-535,-17,-9,21
-55,-2032,-512,8,-12,36
-47,-2059,-511,-22,-74,97
-29,-2034,-492,-17,-67,57
-43,-1994,-452,-36,-64,40
-52,-2022,-501,-73,-84,84
-72,-2137,-569,-64,-79,125
-63,-2119,-591,11,-81,101
-37,-2059,-530,76,-85,82
-21,-2055,-507,86,-73,79
-17,-2004,-466,62,-14,33
8,-2017,-482,-4,-7,9
25,-2031,-503,-27,13,-5
31,-2047,-538,-33,27,-24
23,-2062,-561,-19,20,-29
3,-2067,-552,12,8,-13
-13,-2046,-524,27,-13,2
-28,-2032,-502,28,-13,6
-30,-2034,-492,17,2,6
-21,-2035,-483,9,25,-4
-33,-2029,-478,5,38,-5
-30,-2037,-469,2,35,7
-9,-2025,-470,3,46,5
-33,-2024,-478,22,57,30
-47,-2033,-495,-12,50,53
-20,-2071,-504,-26,77,25
-29,-2041,-563,-25,142,-8
-29,-2040,-509,-16,50,9
-16,-2065,-525,-17,90,-1
-6,-2044,-534,-2,90,-7
-5,-2056,-525,17,69,9
-3,-2074,-522,44,69,28
-8,-2045,-559,64,102,45
-43,-2087,-512,71,32,85
-43,-2053,-504,73,14,59
-26,-2059,-489,73,22,42
-24,-2049,-489,51,33,26
-13,-2045,-493,30,83,15
-50,-2079,-502,40,120,46
-44,-2065,-484,50,152,26
-36,-2042,-510,41,174,-32
-9,-1995,-472,13,99,-46
-104,-2147,-523,-45,117,-52
-82,-2027,-478,12,25,-31
32,-2012,-483,-3,1,-12
-13,-2095,-511,-7,-16,12
-79,-2058,-491,28,-11,8
-9,-2027,-480,9,-28,-18
-10,-2072,-502,-1,-49,0
-31,-2044,-507,17,-29,7
-21,-2056,-510,19,-18,-4
2,-2045,-503,18,-24,9
-7,-2050,-489,18,-13,28
-12,-2052,-491,11,3,33
-36,-2054,-493,12,14,32
-52,-2049,-480,15,3,22
-45,-2050,-474,6,0,-1
-45,-2048,-479,-5,-1,-14
-45,-2048,-478,-9,-1,-18
-38,-2045,-488,-5,0,-18
-25,-2044,-492,-5,-10,-4
-29,-2051,-477,-9,-17,9
-19,-2040,-474,-13,-9,7
-24,-2037,-488,-21,2,5
-23,-2043,-493,-25,-3,9
-15,-2050,-497,-25,-10,11
-10,-2061,-508,-22,-19,18
-5,-2061,-509,-12,-27,32
-14,-2049,-489,2,-28,35
-23,-2040,-472,2,-25,30
-40,-2045,-471,-9,-18,25
-46,-2049,-491,-19,-8,5
-40,-2060,-506,-23,2,-9
-28,-2069,-517,-15,-6,-1
-27,-2052,-497,2,-12,1
-29,-2037,-480,4,-21,14
-39,-2043,-478,-2,-27,36
-45,-2038,-465,-12,-20,29
-31,-2037,-466,-20,-11,14
-30,-2046,-485,-27,-7,11
-41,-2074,-488,-17,-11,3
-3,-2011,-494,-6,-3,-34
-12,-2039,-475,-16,-10,5
-53,-2049,-468,-23,-37,53
-38,-2050,-473,-25,-28,22
-18,-2046,-481,-29,-6,-7
-51,-2059,-498,-34,-2,2
-53,-2084,-522,-35,4,-13
-28,-2081,-531,-19,0,-15
-25,-2064,-504,1,-14,12
-26,-2049,-479,5,-18,19
-25,-2045,-471,-5,-15,16
-23,-2047,-481,-18,-9,18
-31,-2058,-493,-20,-9,12
-35,-2066,-506,-15,-14,6
-20,-2059,-494,-4,-17,8
