ax,ay,az,gx,gy,gz
-1174,-1568,-660,-144,-1334,-340
-1186,-1557,-661,-174,-1412,-313
-1087,-1504,-671,-214,-1443,-375
-979,-1481,-699,-273,-1488,-439
-895,-1503,-758,-352,-1480,-525
-868,-1564,-860,-414,-1417,-619
-852,-1623,-960,-431,-1342,-706
-818,-1685,-1036,-421,-1212,-785
-797,-1770,-1134,-405,-1071,-882
-727,-1819,-1241,-322,-1033,-912
-695,-1847,-1270,-176,-1023,-842
-720,-1860,-1258,-12,-1008,-710
-727,-1763,-1154,128,-1073,-561
-668,-1609,-980,195,-1095,-487
-624,-1562,-873,152,-990,-495
-577,-1595,-875,60,-850,-541
-593,-1675,-946,9,-716,-572
-639,-1761,-964,21,-654,-577
-667,-1824,-947,61,-643,-566
-677,-1808,-922,103,-689,-535
-732,-1738,-819,166,-840,-440
-744,-1770,-715,133,-822,-416
-684,-1783,-780,5,-649,-476
-560,-1740,-808,7,-563,-586
-473,-1748,-820,-11,-533,-632
-421,-1785,-869,-70,-436,-602
-318,-1810,-922,-94,-300,-531
-252,-1859,-971,-65,-236,-381
-288,-1920,-1007,-8,-291,-193
-392,-1956,-983,69,-360,-36
-513,-1985,-930,133,-361,30
-575,-1978,-881,163,-294,25
-571,-1973,-855,195,-199,50
-625,-1968,-813,243,-167,156
-714,-1937,-770,280,-191,270
-799,-1908,-703,304,-192,353
-850,-1891,-699,309,-238,428
-887,-1882,-713,304,-297,520
-914,-1904,-770,327,-331,642
-997,-1921,-792,345,-373,752
-1059,-1883,-830,329,-415,767
-1079,-1792,-797,300,-354,671
-1159,-1801,-795,211,-180,510
-1188,-1754,-863,118,-58,318
-1244,-1788,-915,29,45,144
-1308,-1865,-991,-27,123,-38
-1290,-1867,-1056,-10,72,-197
-1167,-1831,-1046,50,-15,-300
-1025,-1790,-1022,118,-52,-324
-936,-1702,-930,194,-113,-241
-897,-1625,-822,205,-149,-148
-885,-1617,-766,156,-62,-136
-796,-1661,-794,102,53,-221
-700,-1667,-832,98,70,-242
-688,-1626,-777,140,50,-191
-755,-1629,-708,159,93,-163
-746,-1625,-655,172,27,-143
-778,-1622,-633,158,-85,-92
-840,-1643,-621,158,-161,-76
-863,-1641,-615,154,-197,-135
-862,-1629,-614,142,-177,-221
-850,-1628,-637,144,-121,-246
-866,-1625,-634,158,-84,-193
-866,-1585,-584,173,-94,-135
-778,-1533,-533,170,-102,-108
-663,-1496,-521,154,-79,-110
-568,-1459,-519,142,-98,-101
-493,-1439,-523,108,-97,-70
-480,-1459,-547,63,-30,-28
-517,-1467,-573,56,1,21
-575,-1462,-574,66,-42,69
-626,-1472,-576,63,-5,70
-603,-1488,-615,52,43,23
-517,-1455,-623,40,34,22
-515,-1522,-666,-1,142,-20
-488,-1540,-721,-26,186,-62
-453,-1553,-751,-33,221,-37
-472,-1589,-750,-67,334,10
-484,-1608,-780,-107,464,36
-526,-1662,-810,-103,519,54
-568,-1708,-832,-55,498,81
-582,-1702,-832,20,398,188
-627,-1722,-825,87,217,350
-650,-1741,-803,159,-12,488
-634,-1720,-705,214,-183,566
-649,-1690,-608,227,-221,564
-661,-1666,-582,218,-229,530
-663,-1652,-544,189,-281,503
-697,-1663,-534,132,-304,495
-736,-1694,-556,68,-265,471
-738,-1718,-566,49,-178,432
-784,-1752,-553,30,-117,404
-833,-1764,-538,-7,-92,379
-899,-1813,-522,-34,-23,322
-911,-1808,-495,-8,-103,247
-933,-1848,-529,-47,-147,246
-1017,-1919,-532,-39,-61,262
-1019,-1976,-553,-10,-140,230
-1037,-1953,-548,5,-296,245
-1065,-1936,-476,35,-322,220
-1077,-1960,-464,4,-239,139
-986,-1970,-449,4,-211,37
-888,-1977,-384,-2,-183,-3
-834,-1989,-330,-44,-124,-27
-789,-2014,-330,-122,-42,-76
-809,-2124,-408,-205,80,-120
-917,-2262,-553,-249,166,-115
-1050,-2363,-654,-209,119,-62
-1169,-2379,-693,-124,6,12
-1275,-2358,-735,-39,-122,131
-1376,-2327,-768,33,-332,284
-1517,-2284,-784,110,-517,378
-1585,-2207,-769,191,-604,360
-1611,-2139,-747,247,-651,301
-1590,-2091,-695,266,-669,232
-1542,-2040,-605,268,-614,143
-1510,-1965,-495,264,-539,19
-1466,-1887,-375,231,-430,-126
-1400,-1826,-264,179,-262,-271
-1325,-1755,-213,121,-131,-360
-1307,-1696,-138,59,-83,-377
-1321,-1652,-107,-18,-117,-376
-1325,-1630,-133,-89,-149,-372
-1361,-1648,-188,-137,-186,-365
-1397,-1632,-241,-165,-235,-374
-1396,-1590,-266,-164,-308,-407
-1402,-1556,-319,-163,-399,-429
-1358,-1501,-336,-158,-508,-442
-1253,-1481,-339,-160,-553,-458
-1106,-1480,-347,-169,-548,-465
-1009,-1453,-335,-137,-572,-452
-950,-1380,-251,-88,-595,-441
-884,-1297,-155,-101,-530,-429
-916,-1303,-128,-173,-372,-454
-943,-1303,-138,-230,-332,-502
-935,-1277,-137,-278,-356,-509
-954,-1289,-163,-343,-379,-437
-1000,-1362,-220,-411,-463,-344
-1012,-1371,-288,-439,-570,-280
-1019,-1357,-316,-417,-606,-243
-944,-1332,-295,-405,-588,-230
-827,-1264,-260,-402,-535,-218
-755,-1230,-201,-398,-403,-241
-697,-1245,-211,-433,-330,-285
-656,-1175,-213,-475,-334,-249
-755,-1186,-244,-519,-259,-171
-820,-1240,-295,-561,-234,-138
-805,-1288,-364,-615,-230,-106
-800,-1365,-483,-665,-296,-25
-798,-1423,-557,-691,-397,76
-770,-1500,-623,-698,-387,128
-682,-1585,-709,-684,-300,128
-583,-1656,-780,-620,-202,122
-526,-1665,-758,-525,-135,135
-522,-1646,-701,-452,-60,163
-558,-1648,-650,-412,28,208
-682,-1659,-608,-416,81,251
-795,-1699,-614,-454,182,247
-833,-1740,-669,-506,327,195
-839,-1790,-766,-559,472,133
-859,-1874,-895,-598,608,63
-867,-1937,-1025,-585,728,-1
-919,-1955,-1138,-521,740,33
-933,-2062,-1263,-454,802,75
-899,-2106,-1385,-329,801,147
-874,-2033,-1336,-105,648,227
-842,-1963,-1218,43,566,331
-783,-1847,-1065,98,583,426
-761,-1756,-954,86,661,458
-706,-1703,-917,52,739,457
-636,-1677,-916,-5,810,501
-603,-1681,-965,-112,900,571
-625,-1700,-1063,-207,1011,633
-665,-1689,-1197,-255,1108,669
-709,-1704,-1351,-273,1205,653
-849,-1780,-1526,-274,1403,575
-998,-1851,-1732,-270,1578,502
-1077,-1876,-1880,-169,1635,436
-1134,-1864,-1964,15,1585,488
-1174,-1789,-1901,244,1406,681
-1162,-1670,-1738,433,1064,915
-1140,-1569,-1535,541,776,1103
-1111,-1454,-1328,587,700,1128
-1099,-1359,-1182,565,729,994
-1069,-1311,-1071,456,831,783
-1047,-1317,-1032,281,1096,572
-1069,-1436,-1106,114,1388,379
-1061,-1533,-1211,41,1517,252
-1060,-1614,-1277,59,1520,242
-1091,-1670,-1309,135,1408,320
-1110,-1661,-1285,231,1237,435
-1177,-1646,-1263,314,1132,535
-1254,-1651,-1263,378,1046,566
-1236,-1642,-1273,427,978,555
-1161,-1606,-1262,478,951,542
-1086,-1535,-1216,521,969,508
-999,-1481,-1163,511,1052,416
-888,-1443,-1142,463,1212,282
-802,-1444,-1164,423,1391,155
-734,-1473,-1223,424,1474,102
-708,-1470,-1225,467,1439,122
-683,-1454,-1194,512,1422,166
-675,-1431,-1180,546,1434,209
-670,-1407,-1152,589,1430,237
-646,-1405,-1127,607,1427,231
-595,-1358,-1116,612,1417,256
-570,-1308,-1067,620,1430,285
-557,-1292,-992,574,1494,276
-537,-1308,-981,494,1623,223
-577,-1373,-1011,429,1744,178
-688,-1460,-1055,414,1747,183
-784,-1523,-1063,457,1605,258
-851,-1558,-1013,533,1374,394
-897,-1570,-936,600,1099,566
-913,-1541,-821,666,815,723
-953,-1505,-667,711,591,811
-1013,-1501,-550,688,509,802
-1038,-1519,-477,638,476,730
-1070,-1531,-390,572,416,650
-1094,-1553,-317,479,368,550
-1094,-1576,-266,376,372,406
-1067,-1595,-263,278,367,246
-1024,-1627,-280,198,338,128
-985,-1677,-332,142,265,61
-957,-1708,-383,109,138,40
-942,-1713,-393,103,11,44
-918,-1696,-379,99,-96,43
-910,-1681,-362,75,-189,19
-899,-1682,-369,35,-253,-13
-895,-1692,-394,-7,-289,-42
-896,-1709,-445,-48,-331,-76
-893,-1739,-491,-81,-392,-106
-908,-1764,-541,-103,-462,-126
-942,-1811,-606,-116,-519,-136
-990,-1849,-683,-110,-606,-135
-1035,-1865,-755,-83,-752,-120
-1048,-1855,-809,-43,-910,-90
-1054,-1834,-840,-12,-1067,-28
-1061,-1805,-870,-4,-1202,4
-1005,-1769,-881,-19,-1271,-38
-863,-1723,-895,-66,-1279,-119
-722,-1733,-934,-141,-1232,-178
-637,-1773,-970,-220,-1148,-221
-574,-1829,-993,-285,-1033,-293
-500,-1886,-1023,-314,-911,-373
-440,-1927,-1037,-300,-838,-381
-427,-1959,-1061,-281,-815,-276
-505,-1987,-1110,-256,-844,-113
-651,-1958,-1127,-207,-893,14
-954,-1910,-1195,-185,-915,76
-1383,-1961,-1323,-212,-883,65
-1677,-2003,-1494,-226,-807,-37
-1801,-2044,-1670,-231,-806,-206
-1733,-2013,-1779,-195,-843,-439
-1478,-1924,-1794,-125,-794,-622
-1124,-1822,-1769,-30,-774,-720
-804,-1671,-1669,87,-797,-751
-555,-1511,-1489,168,-742,-739
-353,-1391,-1322,191,-633,-705
-230,-1304,-1194,206,-525,-677
-221,-1238,-1076,205,-418,-641
-262,-1174,-997,152,-294,-607
-328,-1181,-1002,53,-136,-561
-435,-1268,-1090,-35,-7,-468
-604,-1379,-1199,-76,67,-343
-805,-1483,-1302,-74,87,-230
-971,-1579,-1382,-37,91,-145
-1086,-1650,-1419,19,126,-92
-1190,-1693,-1408,79,155,-63
-1271,-1709,-1364,133,159,-75
-1248,-1654,-1316,164,140,-93
-1212,-1615,-1240,182,202,-102
-1112,-1622,-1222,170,295,-153
-958,-1567,-1226,165,365,-198
-824,-1488,-1194,198,469,-222
-706,-1423,-1153,212,578,-207
-618,-1408,-1140,201,686,-203
-520,-1349,-1113,247,758,-220
-434,-1264,-1022,312,876,-208
-421,-1283,-1017,238,914,-34
-385,-1266,-1033,215,804,74
-383,-1299,-1030,259,766,151
-374,-1336,-1063,282,720,255
-349,-1340,-1085,305,631,368
-379,-1335,-1080,333,583,501
-448,-1341,-1055,341,654,585
-486,-1364,-1051,319,816,594
-525,-1391,-1063,302,956,584
-594,-1399,-1070,292,1032,597
-656,-1421,-1083,278,1131,617
-679,-1451,-1097,281,1230,626
-700,-1446,-1111,294,1217,669
-742,-1451,-1101,291,1181,743
-771,-1481,-1104,284,1228,792
-789,-1509,-1122,296,1273,811
-816,-1502,-1131,344,1264,835
-846,-1506,-1067,451,1286,895
-906,-1579,-1081,356,1377,855
-898,-1584,-1113,305,1452,783
-938,-1597,-1120,295,1475,754
-1000,-1619,-1163,254,1520,733
-1032,-1655,-1218,221,1617,681
-1047,-1696,-1308,193,1712,631
-1098,-1738,-1412,183,1760,602
-1128,-1764,-1486,196,1789,581
-1118,-1785,-1537,235,1821,586
-1116,-1797,-1549,301,1806,617
-1112,-1743,-1511,366,1728,646
-1109,-1673,-1455,411,1702,662
-1125,-1644,-1414,428,1712,650
-1137,-1606,-1390,421,1722,616
-1116,-1589,-1373,405,1777,561
-1044,-1576,-1383,387,1843,505
-945,-1540,-1378,379,1881,478
-844,-1508,-1331,381,1925,481
-752,-1473,-1287,367,1994,498
-686,-1417,-1264,334,2039,541
-704,-1398,-1311,288,2066,624
-781,-1413,-1393,260,2101,726
-896,-1434,-1483,258,2111,822
-1021,-1495,-1581,273,2090,906
-1085,-1565,-1667,334,2062,977
-1091,-1559,-1674,456,1977,1061
-1062,-1488,-1581,582,1809,1170
-1034,-1409,-1453,669,1635,1260
-968,-1347,-1319,705,1541,1302
-851,-1293,-1185,712,1513,1276
-726,-1232,-1070,692,1508,1210
-683,-1208,-979,632,1541,1130
-700,-1204,-919,540,1631,1034
-706,-1198,-900,438,1725,942
-721,-1216,-917,339,1756,898
-773,-1277,-953,250,1706,910
-831,-1369,-1037,190,1661,931
-849,-1451,-1162,252,1596,972
-888,-1524,-1207,304,1462,1027
-913,-1553,-1266,248,1374,1016
-904,-1580,-1288,289,1377,1016
-881,-1615,-1294,325,1398,999
-828,-1588,-1284,370,1374,968
-778,-1527,-1205,416,1348,953
-756,-1490,-1132,437,1333,946
-705,-1457,-1074,445,1279,938
-640,-1426,-1027,450,1227,932
-571,-1407,-985,451,1191,930
-514,-1397,-966,448,1151,936
-488,-1398,-950,439,1123,937
-483,-1421,-953,430,1126,927
-503,-1454,-965,427,1134,908
-507,-1469,-976,432,1118,886
-498,-1473,-983,443,1097,874
-484,-1511,-995,452,1082,888
-476,-1540,-1002,467,1015,926
-463,-1544,-975,490,933,958
-457,-1576,-952,498,891,974
-454,-1602,-926,497,865,967
-462,-1620,-892,495,837,949
-459,-1647,-885,479,805,926
-449,-1695,-862,448,755,894
-428,-1728,-851,384,725,827
-386,-1809,-918,282,765,724
-350,-1942,-1046,192,808,626
-317,-2052,-1149,154,827,550
-267,-2133,-1241,167,864,483
-221,-2233,-1352,220,898,461
-212,-2323,-1454,340,881,502
-211,-2368,-1525,507,797,609
-334,-2370,-1496,717,651,739
-544,-2311,-1364,906,520,779
-696,-2188,-1192,1024,471,690
-750,-2081,-1056,1047,504,546
-781,-2024,-983,1010,515,430
-795,-1995,-932,964,465,331
-768,-1975,-890,917,401,219
-675,-1942,-870,873,357,107
-562,-1913,-845,842,315,33
-461,-1913,-834,849,274,13
-399,-1896,-785,942,231,71
-376,-1899,-725,932,216,77
-365,-1916,-687,841,253,-5
-366,-1914,-626,782,254,-10
-413,-1907,-597,733,215,52
-513,-1935,-613,689,194,84
-651,-1923,-646,654,175,73
-849,-1919,-707,595,125,61
-1044,-1980,-821,526,109,18
-1199,-2059,-972,486,93,-57
-1317,-2132,-1081,510,11,-149
-1345,-2119,-1102,575,-82,-288
-1255,-2012,-1051,657,-179,-425
-1077,-1892,-956,701,-261,-517
-899,-1774,-868,700,-308,-561
-850,-1730,-807,662,-307,-574
-850,-1717,-745,592,-250,-635
-785,-1693,-705,499,-150,-757
-708,-1672,-683,406,-48,-889
-685,-1675,-679,307,66,-1007
-666,-1712,-717,187,209,-1102
-680,-1762,-804,86,341,-1172
-695,-1824,-901,21,461,-1237
-666,-1854,-1003,-16,566,-1288
-617,-1833,-1070,-23,610,-1303
-565,-1797,-1134,-31,640,-1276
-502,-1768,-1219,-51,662,-1200
-485,-1750,-1314,-60,625,-1066
-491,-1745,-1386,-54,577,-913
-462,-1714,-1459,-24,524,-785
-432,-1662,-1494,48,446,-653
-409,-1594,-1488,140,367,-525
-323,-1471,-1410,260,328,-462
-253,-1438,-1333,301,403,-427
-108,-1389,-1308,360,407,-516
75,-1224,-1241,400,183,-397
91,-1135,-1127,373,72,-122
96,-1178,-1073,327,115,27
135,-1196,-1104,430,123,179
147,-1126,-1017,701,21,432
161,-1078,-911,772,-13,600
196,-1132,-929,666,73,633
188,-1159,-943,601,84,687
147,-1131,-930,588,125,796
101,-1150,-904,502,337,784
108,-1226,-983,363,543,698
101,-1308,-1067,289,599,659
84,-1372,-1224,235,583,706
162,-1443,-1253,251,564,829
213,-1471,-1230,269,613,991
188,-1447,-1219,180,612,1162
101,-1430,-1130,89,665,1253
1,-1402,-1060,-21,768,1266
-102,-1399,-1026,-115,878,1284
-193,-1400,-975,-157,927,1327
-211,-1393,-971,-234,950,1349
-204,-1438,-1032,-311,1038,1334
-202,-1521,-1143,-374,1206,1284
-204,-1606,-1268,-402,1379,1248
-214,-1639,-1338,-382,1511,1231
-232,-1629,-1363,-332,1647,1223
-296,-1602,-1366,-280,1778,1260
-418,-1588,-1355,-257,1862,1382
-607,-1604,-1371,-234,1871,1536
-723,-1611,-1377,-172,1842,1665
-843,-1615,-1395,-97,1792,1884
-978,-1588,-1361,-18,1698,2088
-1155,-1640,-1331,18,1625,2180
-1270,-1720,-1322,16,1710,2109
-1252,-1675,-1344,28,1964,1922
-1241,-1547,-1356,54,2177,1701
-1223,-1479,-1317,50,2221,1482
-1167,-1487,-1274,-28,2283,1297
-1121,-1523,-1310,-118,2417,1200
-1097,-1524,-1316,-122,2438,1180
-1135,-1493,-1287,-106,2334,1219
-1181,-1457,-1310,-126,2217,1311
-1234,-1510,-1407,-158,2142,1439
-1270,-1607,-1530,-145,2033,1555
-1276,-1704,-1656,-57,1884,1655
-1238,-1753,-1717,97,1729,1765
-1181,-1707,-1718,280,1597,1874
-1157,-1620,-1676,464,1496,1970
-1184,-1553,-1600,607,1435,2040
-1215,-1443,-1519,700,1458,1988
-1182,-1293,-1403,721,1641,1897
-1214,-1305,-1386,615,1813,1812
-1176,-1267,-1384,520,2011,1597
-1093,-1245,-1404,439,2206,1448
-1125,-1274,-1398,351,2331,1408
-1184,-1317,-1431,255,2433,1375
-1219,-1411,-1560,236,2412,1372
-1283,-1543,-1689,339,2172,1478
-1334,-1542,-1697,531,1825,1651
-1366,-1471,-1639,725,1544,1797
-1381,-1400,-1554,851,1360,1863
-1324,-1320,-1464,879,1309,1814
-1173,-1218,-1380,824,1387,1698
-1034,-1181,-1362,691,1440,1701
-967,-1146,-1334,603,1462,1727
-928,-1119,-1272,584,1600,1666
-876,-1112,-1255,594,1745,1585
-861,-1109,-1284,625,1750,1581
-922,-1144,-1327,680,1678,1621
-1008,-1222,-1362,759,1598,1618
-1020,-1248,-1403,821,1532,1554
-948,-1273,-1474,872,1507,1493
-856,-1274,-1485,917,1414,1492
-772,-1218,-1426,922,1364,1552
-714,-1189,-1391,830,1433,1657
-731,-1268,-1374,757,1543,1744
-715,-1239,-1348,755,1664,1719
-682,-1212,-1324,746,1743,1634
-721,-1263,-1324,772,1740,1593
-764,-1271,-1297,822,1739,1601
-796,-1287,-1249,825,1795,1620
-835,-1308,-1271,806,1803,1624
-906,-1365,-1284,857,1697,1644
-963,-1391,-1236,931,1545,1625
-949,-1344,-1182,976,1427,1546
-924,-1279,-1128,979,1296,1437
-936,-1306,-1049,935,1163,1320
-927,-1388,-1046,863,1125,1178
-842,-1417,-1059,802,1209,1008
-777,-1455,-1101,741,1338,839
-716,-1486,-1137,702,1375,688
-656,-1506,-1164,681,1324,600
-619,-1527,-1198,682,1200,575
-600,-1537,-1221,702,1037,619
-624,-1565,-1198,701,896,678
-631,-1563,-1176,682,837,706
-627,-1534,-1143,636,830,713
-619,-1521,-1113,553,826,697
-592,-1515,-1108,460,850,644
-563,-1534,-1116,360,877,591
-549,-1571,-1150,267,887,559
-557,-1598,-1184,211,884,538
-608,-1615,-1200,178,871,493
-653,-1618,-1218,152,880,404
-638,-1599,-1250,124,914,306
-635,-1605,-1293,89,918,235
-635,-1626,-1347,62,906,187
-615,-1638,-1396,59,892,153
-586,-1632,-1409,87,834,144
-594,-1627,-1422,110,742,168
-611,-1635,-1432,138,628,202
-600,-1631,-1430,164,534,235
-594,-1620,-1425,195,428,268
-612,-1594,-1411,219,318,289
-641,-1586,-1405,209,263,292
-679,-1591,-1417,178,217,271
-668,-1456,-1372,176,186,260
-728,-1628,-1306,84,288,309
-753,-1676,-1444,-41,363,287
-738,-1528,-1362,199,290,254
-793,-1498,-1195,271,26,261
-846,-1513,-1227,108,-264,302
-891,-1541,-1295,11,-382,338
-985,-1640,-1348,-40,-378,342
-1050,-1706,-1394,-46,-300,265
-1015,-1715,-1378,-3,-224,152
-942,-1652,-1319,37,-206,112
-923,-1592,-1252,59,-196,125
-949,-1578,-1215,60,-187,92
-935,-1585,-1202,24,-168,-32
-856,-1588,-1226,-50,-104,-176
-783,-1619,-1245,-110,-12,-278
-782,-1656,-1270,-140,63,-331
-833,-1692,-1304,-130,127,-391
-834,-1684,-1300,-90,153,-450
-854,-1686,-1272,-37,156,-457
-882,-1675,-1237,26,75,-400
-913,-1644,-1215,78,-38,-286
-922,-1616,-1168,146,-131,-173
-936,-1584,-1096,184,-196,-105
-978,-1537,-1033,176,-162,-88
-1004,-1524,-995,130,-130,-135
-1018,-1506,-1004,51,-153,-187
-1033,-1434,-983,12,-143,-198
-1110,-1505,-981,-27,-21,-282
-1005,-1519,-1064,-99,-104,-421
-937,-1474,-1109,-114,-122,-450
-928,-1596,-1155,-110,12,-490
-843,-1617,-1216,-110,10,-519
-761,-1632,-1219,-73,-36,-478
-756,-1656,-1204,-28,-88,-387
-733,-1633,-1148,18,-167,-309
-696,-1589,-1056,64,-200,-233
-680,-1598,-959,73,-187,-167
-676,-1635,-939,47,-159,-169
-687,-1628,-907,63,-147,-223
-715,-1586,-860,80,-136,-309
-724,-1543,-849,47,-114,-408
-693,-1505,-865,-10,-85,-470
-664,-1528,-875,-66,-55,-477
-627,-1537,-912,-99,-44,-445
-630,-1574,-970,-101,-74,-377
-637,-1639,-1019,-96,-100,-284
-658,-1659,-1063,-79,-118,-196
-676,-1642,-1058,-60,-169,-105
-747,-1740,-1094,-66,-160,-40
-776,-1792,-1147,-38,-173,-50
-724,-1729,-1144,21,-222,-110
-702,-1688,-1119,43,-237,-141
-714,-1680,-1119,21,-211,-148
-760,-1731,-1149,-9,-160,-161
-772,-1767,-1164,-26,-151,-182
-796,-1893,-1265,-15,-101,-262
-753,-1883,-1301,62,-129,-360
-742,-1776,-1236,172,-218,-428
-734,-1681,-1167,214,-268,-446
-754,-1644,-1153,186,-281,-449
-768,-1634,-1158,161,-302,-448
-779,-1650,-1158,145,-340,-457
-785,-1677,-1174,129,-366,-497
-750,-1668,-1178,133,-395,-508
-747,-1663,-1159,138,-427,-488
-749,-1647,-1118,138,-439,-491
-725,-1630,-1080,129,-419,-518
-704,-1623,-1053,98,-398,-550
-688,-1605,-1045,54,-364,-583
-660,-1569,-1037,6,-309,-606
-633,-1577,-1040,-63,-245,-606
-632,-1609,-1074,-129,-210,-616
-602,-1625,-1116,-157,-217,-628
-579,-1660,-1184,-168,-229,-608
-560,-1675,-1218,-161,-247,-577
-526,-1671,-1205,-147,-254,-561
-496,-1685,-1197,-147,-244,-553
-440,-1675,-1197,-145,-238,-538
-430,-1667,-1184,-137,-231,-504
-455,-1664,-1188,-144,-234,-446
-492,-1671,-1210,-160,-246,-390
-517,-1669,-1227,-163,-257,-352
-535,-1665,-1236,-172,-249,-311
-550,-1666,-1263,-198,-242,-268
-589,-1670,-1288,-216,-244,-234
-668,-1694,-1352,-217,-262,-214
-721,-1717,-1424,-203,-304,-217
-710,-1684,-1444,-154,-319,-243
-728,-1668,-1464,-104,-323,-279
-748,-1676,-1495,-51,-336,-323
-682,-1643,-1479,22,-345,-374
-594,-1583,-1425,99,-357,-405
-500,-1493,-1353,156,-368,-413
-462,-1434,-1263,178,-366,-418
-438,-1364,-1200,179,-350,-465
-378,-1287,-1134,158,-296,-541
-326,-1255,-1120,80,-234,-596
-198,-1261,-1203,-18,-195,-634
-77,-1261,-1275,-48,-189,-583
-57,-1297,-1305,-36,-164,-513
-8,-1254,-1312,-19,-210,-430
16,-1227,-1281,2,-279,-275
-28,-1231,-1244,41,-344,-91
-137,-1185,-1156,86,-474,80
-325,-1151,-1071,69,-554,195
-546,-1194,-1061,-13,-544,228
-759,-1315,-1119,-110,-524,206
-844,-1439,-1201,-173,-520,160
-852,-1541,-1285,-171,-554,128
-854,-1650,-1331,-120,-613,121
-758,-1671,-1312,-37,-638,105
-598,-1644,-1212,55,-622,94
-507,-1618,-1082,123,-663,140
-474,-1568,-945,163,-731,215
-479,-1532,-811,139,-729,264
-552,-1568,-724,51,-719,273
-647,-1643,-706,-45,-676,180
-696,-1688,-714,-135,-610,-3
-709,-1729,-753,-208,-540,-165
-745,-1814,-820,-289,-504,-264
-753,-1905,-920,-377,-540,-307
-735,-2019,-1056,-430,-550,-311
-713,-2178,-1197,-389,-532,-325
-656,-2224,-1240,-260,-565,-347
-625,-2170,-1169,-120,-629,-348
-626,-2118,-1106,-22,-684,-338
-648,-2015,-1041,34,-759,-325
-737,-1928,-982,2,-762,-280
-871,-1909,-916,-31,-842,-260
-966,-1967,-987,-185,-789,-378
-962,-1947,-1083,-208,-622,-621
-971,-1910,-1112,-188,-611,-843
-951,-1872,-1189,-233,-549,-1021
-852,-1831,-1262,-260,-346,-1187
-712,-1744,-1305,-244,-224,-1307
-556,-1643,-1304,-222,-108,-1396
-413,-1588,-1336,-234,32,-1452
-333,-1572,-1374,-247,128,-1471
-281,-1570,-1429,-247,164,-1456
-293,-1576,-1464,-183,129,-1404
-306,-1591,-1481,-71,93,-1327
-268,-1621,-1500,37,-24,-1229
-224,-1585,-1487,162,-253,-1064
-220,-1545,-1443,288,-449,-897
-204,-1499,-1389,382,-595,-784
-174,-1480,-1349,437,-685,-710
-140,-1477,-1318,450,-706,-648
-124,-1436,-1277,462,-685,-598
-107,-1349,-1210,487,-628,-588
-78,-1323,-1132,478,-548,-576
-46,-1342,-1141,404,-503,-552
-53,-1319,-1135,416,-510,-479
-137,-1351,-1105,464,-567,-355
-180,-1345,-1075,481,-677,-219
-180,-1339,-996,512,-748,-88
-156,-1387,-933,512,-805,43
-115,-1414,-830,510,-871,165
-63,-1418,-696,488,-921,275
-32,-1421,-564,427,-942,383
-48,-1412,-463,329,-950,477
-99,-1393,-395,172,-864,525
-200,-1444,-367,-76,-594,494
-352,-1546,-432,-366,-198,354
-553,-1681,-571,-638,195,143
-904,-1914,-801,-843,450,-96
-1166,-2157,-1090,-899,496,-328
-1214,-2340,-1304,-775,408,-447
-1078,-2377,-1343,-516,164,-403
-860,-2306,-1228,-204,-197,-228
-655,-2084,-977,86,-610,19
-593,-1850,-685,231,-909,212
-572,-1713,-512,175,-1016,240
-529,-1636,-452,3,-997,120
-468,-1599,-482,-218,-889,-90
-333,-1622,-651,-469,-673,-330
-241,-1726,-897,-700,-499,-511
-268,-1823,-1165,-860,-418,-650
-339,-1995,-1464,-945,-256,-785
-301,-2180,-1768,-948,-52,-892
-181,-2253,-1960,-830,52,-918
-59,-2231,-2000,-618,61,-855
1,-2102,-1917,-369,2,-719
-15,-1950,-1753,-160,-61,-547
-94,-1773,-1564,-23,-155,-368
-220,-1615,-1348,25,-224,-228
-299,-1544,-1189,-32,-137,-200
-216,-1500,-1092,-129,-13,-269
-134,-1554,-1062,-218,164,-398
-16,-1549,-1057,-244,220,-563
31,-1478,-1020,-264,160,-555
-5,-1497,-965,-304,145,-430
-85,-1553,-960,-333,89,-317
-188,-1561,-953,-303,45,-268
-287,-1595,-944,-281,42,-267
-323,-1647,-986,-289,-11,-218
-303,-1681,-1008,-259,-50,-116
-266,-1693,-964,-190,-32,-46
-216,-1649,-898,-122,-42,-15
-223,-1603,-835,-89,-107,62
-317,-1538,-761,-89,-189,199
-523,-1494,-712,-115,-213,287
-743,-1542,-723,-193,-226,252
-839,-1646,-813,-334,-251,139
-827,-1753,-965,-436,-258,40
-773,-1847,-1103,-437,-245,-6
-672,-1889,-1167,-353,-255,-16
-584,-1868,-1149,-219,-320,36
-572,-1820,-1088,-91,-396,177
-588,-1767,-991,-56,-420,265
-498,-1567,-847,-47,-413,282
-525,-1404,-729,-80,-448,301
-710,-1373,-720,-219,-452,200
-829,-1465,-864,-483,-209,-92
-780,-1654,-1202,-774,169,-472
-638,-1861,-1605,-922,436,-747
-489,-2067,-1925,-875,570,-868
-263,-2172,-2090,-672,672,-857
-40,-2141,-2098,-399,646,-661
31,-2006,-1945,-96,472,-311
-5,-1815,-1733,152,235,66
-205,-1642,-1557,291,-75,468
-488,-1531,-1406,302,-335,763
-632,-1509,-1369,216,-331,816
-537,-1488,-1400,132,-268,756
-380,-1480,-1430,71,-265,739
-261,-1474,-1453,29,-235,777
-237,-1443,-1462,7,-169,830
-315,-1411,-1423,-12,-87,861
-417,-1379,-1366,-54,28,828
-457,-1316,-1361,-91,126,746
-440,-1224,-1337,-105,163,667
-397,-1121,-1313,-133,184,583
-330,-1021,-1262,-183,244,486
-204,-913,-1199,-261,367,401
-154,-788,-1120,-334,466,318
-235,-746,-1107,-458,578,208
-305,-793,-1164,-607,779,55
-279,-853,-1200,-712,1025,-113
-196,-863,-1247,-752,1133,-214
-149,-887,-1299,-717,1062,-146
-165,-861,-1245,-701,898,1
-187,-830,-1220,-745,756,103
-192,-789,-1262,-754,525,286
-258,-820,-1319,-785,220,535
-325,-913,-1423,-858,30,729
-433,-1030,-1560,-920,-97,843
-638,-1293,-1821,-989,-105,848
-688,-1540,-2106,-984,-4,767
-617,-1674,-2224,-852,124,732
-535,-1689,-2159,-665,177,725
-491,-1576,-1981,-452,102,715
-444,-1376,-1735,-270,18,706
-413,-1178,-1480,-201,3,721
-475,-1105,-1329,-271,12,733
-590,-1201,-1360,-433,12,688
-624,-1370,-1534,-608,40,592
-524,-1621,-1794,-692,94,513
-361,-1877,-2041,-608,88,509
-182,-1982,-2121,-349,-3,574
-98,-1903,-1980,-19,-140,685
-85,-1704,-1714,246,-253,812
-98,-1481,-1394,376,-239,940
-202,-1366,-1143,369,-192,1011
-367,-1350,-1038,255,-168,993
-502,-1407,-1041,101,-126,903
-619,-1586,-1122,-30,-60,763
-619,-1929,-1362,-243,-72,524
-414,-1858,-1592,-302,-266,526
-420,-2048,-1539,66,111,390
-267,-2077,-1489,323,217,56
-114,-1942,-1395,419,102,-93
-164,-1951,-1336,416,87,-29
-308,-1946,-1271,386,52,99
-432,-2014,-1261,389,7,134
-456,-2100,-1336,391,-164,100
-383,-2120,-1414,399,-378,124
-343,-2111,-1415,434,-480,175
-306,-2096,-1375,463,-499,132
-263,-2045,-1312,491,-473,-15
-252,-1957,-1227,508,-429,-184
-302,-1870,-1138,464,-375,-309
-397,-1863,-1131,353,-281,-411
-524,-1918,-1240,248,-195,-524
-665,-1978,-1344,216,-140,-670
-748,-1995,-1459,193,-67,-869
-743,-2025,-1614,181,-23,-1046
-643,-1998,-1731,208,12,-1135
-544,-1962,-1722,272,62,-1146
-474,-1928,-1673,326,117,-1193
-361,-1823,-1607,368,101,-1243
-274,-1749,-1529,379,46,-1195
-255,-1713,-1437,403,31,-1053
-333,-1681,-1337,454,7,-900
-402,-1648,-1275,430,-125,-737
-469,-1648,-1259,338,-308,-539
-622,-1691,-1324,216,-471,-345
-810,-1782,-1446,100,-563,-273
-937,-1892,-1628,9,-570,-359
-957,-1953,-1834,-42,-530,-502
-998,-1976,-1912,-6,-450,-668
-938,-2028,-1958,-8,-385,-854
-758,-2000,-2018,41,-365,-923
-596,-1850,-1916,245,-395,-873
-471,-1679,-1705,431,-420,-785
-393,-1449,-1453,556,-492,-691
-432,-1223,-1194,601,-586,-600
-529,-1103,-1027,512,-624,-540
-609,-1075,-967,333,-588,-548
-673,-1115,-985,145,-513,-627
-710,-1206,-1088,-30,-402,-755
-656,-1359,-1258,-156,-231,-901
-555,-1490,-1405,-201,-168,-972
-511,-1598,-1499,-213,-206,-928
-540,-1681,-1557,-211,-229,-851
-577,-1696,-1570,-181,-259,-783
-648,-1711,-1596,-176,-277,-732
-714,-1775,-1650,-186,-271,-731
-744,-1806,-1698,-187,-258,-774
-724,-1814,-1721,-163,-228,-851
-592,-1789,-1696,-107,-181,-944
-373,-1695,-1616,-26,-151,-992
-233,-1618,-1534,51,-160,-959
-167,-1580,-1476,126,-155,-877
-80,-1524,-1394,227,-144,-775
-25,-1400,-1257,352,-216,-643
-48,-1218,-1056,458,-268,-501
-94,-1065,-851,479,-226,-405
-188,-976,-700,415,-98,-357
-299,-1072,-662,290,108,-519
-269,-1116,-744,134,88,-763
-220,-1152,-852,-24,-65,-806
-225,-1305,-1005,-159,-105,-696
-210,-1415,-1155,-178,-104,-570
-188,-1481,-1233,-73,-140,-478
-122,-1477,-1237,64,-179,-408
-33,-1398,-1176,166,-189,-308
-16,-1281,-1059,235,-186,-169
-81,-1190,-915,275,-155,-95
-86,-1117,-883,244,-211,-104
-53,-1030,-893,251,-300,85
-157,-1053,-859,225,-255,310
-238,-1131,-970,175,-105,368
-180,-1144,-1088,334,-42,564
-157,-1216,-1099,407,-159,911
-217,-1365,-1150,133,-268,1214
-307,-1466,-1289,-45,-403,1412
-326,-1464,-1319,65,-621,1486
-252,-1570,-1361,85,-645,1325
-109,-1412,-1456,-56,-337,574
-332,-1271,-1225,-27,-31,934
-522,-1570,-1374,-480,82,644
-473,-1587,-1515,-575,263,464
-479,-1463,-1422,-521,297,702
-381,-1442,-1355,-503,221,607
-310,-1520,-1443,-478,333,562
-283,-1537,-1457,-386,387,715
-323,-1650,-1576,-445,336,783
-368,-1753,-1714,-469,382,879
-435,-1896,-1873,-453,421,1035
-560,-2040,-2079,-391,320,1246
-759,-2195,-2228,-258,182,1387
-882,-2252,-2258,-72,99,1373
-894,-2218,-2199,134,105,1217
-831,-2105,-2041,311,168,972
-724,-1943,-1861,401,273,709
-569,-1782,-1711,429,380,470
-413,-1648,-1569,387,518,322
-352,-1590,-1478,301,654,264
-327,-1556,-1457,235,754,263
-347,-1560,-1468,235,769,283
-363,-1581,-1486,285,692,298
-329,-1539,-1467,344,578,337
-291,-1482,-1454,384,492,388
-257,-1456,-1467,403,452,408
-191,-1424,-1469,381,492,373
-120,-1458,-1502,302,640,304
-45,-1560,-1583,215,851,229
-3,-1634,-1632,196,987,190
-21,-1680,-1641,228,1040,234
-88,-1711,-1624,291,1019,364
-165,-1726,-1586,389,927,534
-209,-1681,-1491,525,799,703
-256,-1561,-1303,642,660,852
-347,-1437,-1126,676,566,935
-437,-1353,-1001,624,518,928
-504,-1333,-926,516,498,847
-543,-1334,-914,386,501,707
-529,-1387,-940,252,578,501
-414,-1509,-1038,132,739,230
-238,-1556,-1118,74,815,7
-124,-1557,-1135,84,773,-79
-87,-1508,-1099,112,744,-41
-116,-1483,-1080,122,745,38
-170,-1427,-1019,165,685,72
-175,-1354,-974,170,576,93
-170,-1339,-980,134,533,154
-170,-1373,-974,115,529,181
-165,-1392,-1006,72,502,152
-165,-1439,-1052,38,491,101
-155,-1485,-1086,27,513,53
-133,-1560,-1124,8,582,10
-84,-1646,-1166,24,624,-21
-76,-1685,-1161,87,559,-4
-130,-1689,-1122,151,452,59
-183,-1665,-1068,194,359,136
-250,-1674,-1023,211,312,186
-269,-1723,-989,205,324,176
-215,-1705,-978,180,408,130
-164,-1630,-993,138,554,81
-237,-1691,-1068,77,631,26
-339,-1824,-1145,28,638,-50
-411,-1924,-1222,30,658,-128
-452,-1989,-1288,93,619,-168
-467,-2001,-1300,188,489,-141
-476,-1959,-1257,279,317,-69
-490,-1920,-1224,341,155,19
-514,-1929,-1206,360,17,109
-526,-1923,-1172,367,-108,178
-480,-1890,-1084,374,-198,209
-438,-1867,-960,346,-245,241
-434,-1845,-877,294,-316,257
-461,-1833,-838,253,-371,246
-512,-1864,-866,192,-360,221
-586,-1949,-976,130,-344,189
-654,-2046,-1133,110,-361,149
-742,-2094,-1243,142,-417,113
-819,-2147,-1318,174,-440,81
-831,-2156,-1359,215,-485,44
-798,-2085,-1302,282,-588,10
-740,-1968,-1180,321,-689,-26
-676,-1826,-1049,310,-747,-80
-637,-1688,-917,232,-745,-159
-615,-1565,-809,108,-688,-274
-659,-1495,-767,-32,-631,-418
-777,-1511,-839,-222,-523,-613
-837,-1635,-1060,-435,-337,-847
-812,-1833,-1319,-595,-207,-1003
-807,-2011,-1540,-638,-153,-1089
-774,-2144,-1714,-576,-135,-1166
-647,-2166,-1801,-455,-186,-1175
-501,-2112,-1763,-280,-311,-1081
-407,-1997,-1656,-93,-417,-947
-324,-1830,-1509,70,-494,-810
-271,-1625,-1317,189,-585,-661
-312,-1456,-1134,216,-655,-530
-433,-1351,-1024,156,-645,-493
-582,-1352,-1038,24,-557,-582
-644,-1418,-1122,-104,-437,-753
-629,-1494,-1219,-169,-319,-936
-549,-1517,-1286,-159,-227,-1082
-440,-1469,-1223,-103,-148,-1180
-359,-1364,-1127,-51,-70,-1239
-300,-1237,-1046,-7,-35,-1232
-270,-1044,-892,28,-7,-1129
-269,-837,-702,43,110,-1023
-327,-823,-625,-144,260,-1028
-294,-1033,-899,-376,364,-1333
-81,-984,-1059,-432,163,-1477
-141,-1028,-1181,-554,126,-1281
-161,-1274,-1359,-604,249,-1145
-63,-1368,-1509,-533,214,-1009
33,-1356,-1521,-309,148,-807
137,-1357,-1484,-131,102,-528
235,-1324,-1401,-36,-7,-131
260,-1208,-1226,76,-170,298
215,-1091,-1070,165,-418,694
33,-1031,-942,149,-703,1016
-119,-1054,-913,27,-747,1143
-194,-1111,-957,-97,-724,1136
-193,-1179,-1030,-177,-746,1108
-191,-1214,-1072,-224,-727,1092
