ax,ay,az,gx,gy,gz
42,-2091,-164,-12,-8,-2
31,-2097,-177,-16,3,-10
26,-2108,-194,-17,-2,-11
31,-2108,-196,-6,-11,-4
36,-2099,-190,0,-12,-4
38,-2095,-183,-2,-7,-4
47,-2086,-173,-7,-8,0
48,-2091,-176,-15,-9,1
59,-2096,-187,-19,-6,1
69,-2096,-183,-16,-7,8
57,-2089,-184,-12,-7,16
45,-2096,-185,-14,-3,12
68,-2103,-184,-11,-2,12
58,-2091,-175,-4,2,15
49,-2085,-168,-3,5,13
38,-2074,-159,-9,1,15
22,-2068,-156,-17,-2,16
11,-2089,-173,-33,5,4
7,-2124,-208,-45,12,-9
9,-2144,-233,-41,13,-14
17,-2146,-235,-26,7,-15
25,-2144,-234,-10,-4,-7
35,-2134,-213,3,-19,11
40,-2111,-186,15,-23,20
39,-2070,-152,17,-21,16
43,-2056,-149,2,-7,8
46,-2067,-155,-19,1,-1
45,-2083,-167,-26,1,-8
41,-2082,-172,-25,0,-9
33,-2090,-179,-25,-4,-4
22,-2101,-186,-27,-9,0
27,-2112,-204,-34,-9,-1
36,-2139,-222,-40,-7,7
36,-2158,-245,-26,-10,12
36,-2140,-231,2,-12,13
42,-2115,-210,21,-13,19
35,-2098,-172,26,-18,23
19,-2083,-162,20,-18,18
19,-2073,-151,5,-18,9
27,-2071,-147,-8,-10,-3
25,-2081,-162,-25,-2,-19
35,-2103,-183,-34,-3,-28
40,-2104,-189,-25,-11,-23
31,-2091,-194,-18,-16,-18
47,-2106,-198,-21,-13,-8
53,-2123,-200,-22,-13,10
44,-2117,-200,-14,-15,12
39,-2104,-188,-8,-22,10
40,-2105,-197,-14,-19,15
56,-2130,-214,-14,-8,12
60,-2119,-202,7,-4,12
37,-2096,-177,18,-10,25
20,-2092,-168,8,-19,26
15,-2085,-165,-1,-18,15
24,-2103,-186,-12,-7,3
35,-2114,-198,-17,2,-9
38,-2106,-197,-6,-1,-17
36,-2083,-172,5,-13,-13
35,-2066,-156,0,-19,-1
36,-2067,-161,-15,-16,-1
43,-2087,-176,-27,-11,-5
44,-2095,-189,-33,-7,-7
42,-2114,-207,-30,-4,-6
44,-2127,-221,-19,-3,2
45,-2117,-201,-3,-13,14
43,-2094,-176,4,-18,17
37,-2088,-175,-5,-14,16
30,-2106,-181,-14,-9,12
28,-2102,-180,-13,-8,-3
30,-2101,-178,-13,-4,-11
34,-2112,-188,-19,-1,-13
37,-2109,-186,-15,-4,-13
25,-2106,-182,-11,-7,-14
29,-2116,-203,-18,-11,-11
47,-2126,-209,-16,-12,-4
43,-2114,-192,-5,-9,2
45,-2113,-203,-5,-5,0
56,-2123,-214,0,-8,4
58,-2106,-190,14,-11,13
43,-2079,-172,14,-10,15
27,-2074,-161,4,-11,14
23,-2080,-168,-8,-8,6
28,-2088,-174,-18,-8,-4
26,-2098,-188,-21,-4,-15
31,-2107,-197,-21,-4,-17
49,-2102,-192,-14,-5,-14
47,-2100,-187,-9,-6,-8
48,-2098,-188,-8,-11,-2
57,-2087,-177,-8,-11,3
54,-2086,-180,-12,-6,7
44,-2111,-192,-20,1,12
37,-2124,-208,-13,3,10
38,-2109,-188,1,-7,9
25,-2100,-181,0,-9,15
14,-2109,-175,-5,-10,14
20,-2097,-171,-4,-11,2
22,-2093,-171,-7,-11,-8
39,-2099,-183,-18,-4,-17
58,-2107,-194,-19,-2,-18
62,-2103,-195,-12,-4,-14
60,-2105,-195,-10,0,-2
57,-2107,-192,-5,-8,12
33,-2094,-180,4,-13,19
18,-2098,-187,1,-10,16
24,-2104,-189,-1,-12,10
23,-2091,-173,5,-12,7
20,-2078,-153,4,-14,4
17,-2084,-161,-12,-17,-1
26,-2091,-173,-26,-18,-7
48,-2100,-184,-30,-12,-15
64,-2101,-199,-28,-6,-15
68,-2112,-198,-24,-4,-8
68,-2120,-206,-13,-4,-3
60,-2116,-202,-1,-9,4
54,-2112,-194,-2,-11,12
38,-2115,-190,-2,-8,15
26,-2116,-190,-1,-2,14
26,-2111,-183,0,-5,12
18,-2092,-168,8,-9,11
13,-2084,-164,2,-13,9
18,-2094,-168,-10,-17,2
34,-2095,-179,-15,-16,-9
60,-2099,-186,-16,-11,-18
64,-2102,-199,-15,-6,-14
66,-2096,-191,-4,-8,-7
53,-2069,-173,4,-10,1
28,-2075,-178,-4,-11,4
17,-2092,-181,-13,-16,4
33,-2078,-172,-11,-16,2
37,-2070,-168,-16,-11,-1
40,-2083,-178,-31,-9,3
24,-2098,-191,-29,-12,6
30,-2100,-187,-23,-12,1
55,-2106,-189,-26,-15,-1
52,-2117,-190,-19,-15,4
52,-2107,-190,-9,-20,9
50,-2093,-179,-6,-16,11
42,-2091,-172,-13,-13,9
45,-2099,-168,-20,-13,4
33,-2102,-173,-23,-7,-2
27,-2112,-186,-29,-7,-5
28,-2131,-200,-26,-10,-4
39,-2123,-192,-17,-12,5
37,-2104,-185,-15,-18,10
26,-2114,-197,-24,-17,9
36,-2131,-210,-25,-20,9
51,-2117,-210,-12,-16,6
54,-2113,-213,-7,-12,4
60,-2127,-207,-5,-11,9
62,-2107,-194,8,-10,12
55,-2091,-184,12,-11,10
48,-2090,-179,6,-7,9
42,-2084,-175,4,-4,8
37,-2079,-168,-1,4,1
26,-2089,-177,-11,3,-5
29,-2095,-180,-12,-5,-5
33,-2089,-177,-11,-8,0
39,-2092,-184,-13,-9,1
35,-2101,-196,-19,-8,5
46,-2112,-213,-18,-5,7
56,-2112,-210,-7,-3,8
48,-2100,-191,7,-6,14
37,-2082,-164,9,-12,24
26,-2067,-148,1,-15,27
20,-2071,-153,-16,-16,19
16,-2087,-163,-32,-11,5
13,-2107,-182,-40,-5,-9
29,-2129,-200,-40,-4,-15
33,-2130,-200,-25,-11,-8
32,-2121,-196,-9,-17,2
23,-2114,-191,-4,-18,7
27,-2119,-188,-7,-16,4
39,-2122,-191,-10,-15,5
47,-2124,-193,-11,-12,4
46,-2121,-192,-5,-15,6
50,-2107,-181,4,-19,12
38,-2087,-168,7,-24,11
38,-2080,-163,-2,-20,4
32,-2091,-179,-16,-12,-5
34,-2115,-202,-23,-2,-16
47,-2118,-208,-15,0,-21
44,-2115,-203,-4,-4,-18
35,-2111,-200,-2,-4,-15
44,-2106,-200,1,-8,-11
54,-2102,-197,4,-10,-2
53,-2098,-190,5,-10,2
45,-2087,-183,4,-8,1
42,-2087,-178,3,-16,6
33,-2077,-168,6,-17,11
13,-2066,-164,2,-15,5
11,-2077,-165,-7,-20,0
15,-2081,-166,-13,-23,-5
30,-2070,-165,-16,-20,-15
53,-2081,-172,-29,-7,-22
62,-2101,-183,-37,0,-22
74,-2101,-198,-34,-4,-17
76,-2106,-212,-25,-8,-8
73,-2114,-206,-13,-10,3
66,-2103,-192,-5,-14,15
53,-2098,-178,-6,-12,19
43,-2099,-176,-12,-5,14
42,-2104,-177,-19,-2,11
42,-2109,-183,-23,0,9
37,-2109,-190,-20,3,3
28,-2106,-194,-13,0,-5
32,-2109,-200,-10,-5,-6
34,-2098,-185,-6,-7,-7
41,-2073,-172,-4,-8,-9
47,-2065,-153,-17,-5,-10
41,-2079,-161,-33,-2,-11
54,-2096,-178,-44,5,-18
70,-2111,-199,-47,8,-18
63,-2120,-207,-38,6,0
41,-2128,-219,-29,0,19
38,-2129,-207,-15,-6,25
41,-2108,-188,-9,-10,27
32,-2108,-196,-18,0,18
41,-2124,-207,-18,8,2
55,-2104,-192,-3,8,-5
40,-2065,-164,8,5,-7
23,-2045,-148,-1,0,-6
16,-2055,-154,-24,-2,-8
17,-2073,-174,-41,-6,-18
29,-2091,-177,-47,-1,-27
32,-2093,-187,-43,-3,-23
29,-2098,-200,-39,-10,-14
42,-2111,-203,-36,-10,-5
68,-2107,-194,-30,-12,7
66,-2107,-188,-28,-16,19
42,-2119,-184,-29,-11,28
31,-2132,-188,-28,-8,28
16,-2134,-182,-22,-11,23
12,-2134,-188,-21,-11,17
21,-2134,-184,-23,-12,7
18,-2132,-196,-19,-10,-3
21,-2140,-204,-16,-13,-12
36,-2141,-213,-13,-17,-15
56,-2120,-204,-5,-16,-13
70,-2099,-194,1,-16,-6
76,-2095,-190,-1,-13,4
79,-2094,-192,-3,-18,14
66,-2096,-197,-1,-21,25
51,-2090,-192,3,-22,34
27,-2077,-178,4,-18,38
21,-2077,-175,-8,-11,34
22,-2090,-190,-24,-5,19
29,-2102,-206,-28,-3,3
36,-2101,-214,-23,-3,-9
47,-2086,-208,-14,-10,-11
45,-2091,-206,-8,-13,-4
53,-2090,-196,-8,-13,-1
57,-2100,-204,-18,-10,-1
74,-2118,-222,-23,-6,-3
83,-2122,-211,-8,-1,2
64,-2101,-198,10,-4,15
40,-2093,-183,11,-5,26
32,-2092,-176,6,-6,28
18,-2087,-162,0,-8,21
14,-2091,-165,-15,0,4
14,-2096,-179,-28,-1,-7
18,-2112,-188,-30,-5,-8
31,-2119,-195,-28,-6,-10
48,-2122,-201,-22,-9,-10
55,-2119,-201,-9,-14,-4
54,-2111,-189,-3,-12,4
40,-2108,-189,-2,-9,10
33,-2110,-180,-3,-12,14
33,-2108,-189,-7,-11,15
35,-2120,-199,-10,-9,14
37,-2121,-197,-3,-13,15
30,-2101,-180,10,-19,17
17,-2084,-168,4,-17,17
18,-2093,-178,-12,-12,11
30,-2102,-186,-20,-9,4
22,-2107,-197,-19,-7,5
15,-2126,-215,-13,-13,3
14,-2118,-218,-1,-24,2
34,-2100,-210,7,-23,0
57,-2087,-201,8,-21,-3
64,-2067,-181,6,-13,-6
66,-2058,-173,-1,-14,-6
68,-2053,-166,-10,-11,-2
65,-2048,-159,-19,-11,3
61,-2052,-154,-30,-12,3
62,-2065,-163,-43,-8,3
53,-2083,-179,-51,-5,7
42,-2101,-200,-50,-3,10
31,-2124,-217,-46,2,11
32,-2139,-222,-42,4,10
35,-2153,-235,-32,1,11
38,-2150,-225,-14,-2,14
34,-2130,-201,-4,3,14
19,-2128,-194,-5,8,11
22,-2144,-198,-15,13,5
26,-2140,-199,-11,12,-1
12,-2126,-190,1,5,-8
10,-2112,-196,3,0,-15
26,-2101,-186,5,-7,-16
37,-2082,-186,5,-12,-18
51,-2064,-185,-2,-9,-23
55,-2070,-200,-12,-3,-24
57,-2070,-205,-11,-6,-15
61,-2057,-194,0,-13,-4
57,-2044,-174,2,-21,9
48,-2038,-161,-9,-13,24
29,-2063,-164,-28,-7,28
25,-2083,-174,-40,-8,18
42,-2095,-189,-49,-1,7
46,-2125,-215,-52,3,6
36,-2158,-256,-41,-2,10
40,-2156,-243,-13,-13,15
40,-2132,-203,10,-20,19
29,-2105,-180,17,-20,14
29,-2100,-179,5,-13,4
38,-2104,-187,-7,-7,-8
50,-2114,-190,-14,-1,-15
63,-2111,-194,-13,6,-12
53,-2116,-202,-9,-2,11
39,-2102,-191,-3,-8,25
21,-2086,-182,0,-13,23
9,-2094,-189,-6,-16,17
12,-2108,-204,-12,-12,7
24,-2115,-210,-10,-8,-6
36,-2115,-205,-6,-8,-8
43,-2107,-200,-2,-4,-1
39,-2100,-194,0,-13,2
54,-2087,-187,3,-17,2
64,-2071,-177,-1,-10,-1
63,-2078,-192,-10,-7,-1
64,-2092,-203,-13,-6,9
61,-2097,-200,-1,-6,13
47,-2089,-193,12,-5,14
48,-2089,-182,8,-1,21
34,-2090,-174,1,1,23
10,-2097,-182,-6,-2,14
6,-2114,-194,-13,-2,7
5,-2125,-194,-11,-6,7
9,-2115,-194,-6,-11,0
26,-2113,-193,-5,-8,-10
45,-2103,-188,-6,-8,-5
62,-2097,-187,-8,-8,1
64,-2098,-187,-10,-1,-3
62,-2099,-190,-6,2,4
58,-2101,-199,-1,0,17
59,-2100,-189,0,-3,16
51,-2097,-188,-1,-2,16
33,-2101,-194,-4,1,18
20,-2111,-194,-2,2,14
19,-2110,-191,6,3,7
19,-2092,-170,14,-1,4
16,-2067,-162,10,-7,3
17,-2068,-159,-4,-13,6
33,-2066,-157,-21,-12,-2
64,-2065,-164,-35,-7,-8
74,-2070,-167,-45,-2,-6
58,-2088,-185,-51,6,-1
33,-2118,-220,-53,7,6
28,-2135,-231,-41,-5,15
35,-2131,-211,-23,-11,18
25,-2116,-212,-16,-7,16
17,-2124,-205,-16,-8,17
14,-2120,-190,-17,-9,12
16,-2115,-187,-18,-10,4
19,-2109,-187,-15,-8,-1
18,-2119,-199,-17,-4,-6
38,-2115,-195,-14,-5,-12
52,-2108,-195,-11,-4,-17
56,-2117,-210,-10,0,-14
62,-2131,-217,-9,-3,-2
54,-2126,-218,6,-9,7
38,-2120,-210,18,-7,5
29,-2114,-196,16,-5,4
12,-2114,-196,12,-7,4
10,-2107,-185,16,-12,-4
28,-2083,-164,18,-17,-7
37,-2072,-163,11,-17,-4
33,-2070,-160,3,-15,-5
35,-2066,-165,0,-10,-9
36,-2069,-171,-9,-6,-11
48,-2076,-182,-19,-7,-8
55,-2089,-194,-23,-2,-6
54,-2091,-198,-17,-3,-3
59,-2101,-194,-15,-5,2
52,-2112,-212,-16,-7,10
38,-2131,-226,-9,-6,14
46,-2128,-213,3,-7,17
47,-2105,-187,14,-9,19
33,-2096,-179,12,-4,15
27,-2098,-173,1,-2,10
34,-2089,-175,-4,0,2
37,-2104,-187,-8,2,-7
34,-2120,-195,-7,2,-9
33,-2108,-187,6,-2,-6
37,-2089,-175,11,-9,0
29,-2079,-165,6,-10,6
17,-2077,-162,-5,-9,7
17,-2091,-174,-15,-12,1
26,-2098,-186,-17,-6,-10
37,-2084,-174,-14,-6,-14
44,-2083,-168,-10,-10,-4
46,-2076,-165,-12,-14,5
44,-2079,-166,-19,-15,6
40,-2088,-171,-27,-13,3
47,-2098,-179,-34,-7,1
32,-2110,-190,-35,-3,-5
20,-2119,-205,-30,-5,-9
28,-2125,-221,-24,-12,-6
46,-2124,-215,-14,-17,-1
51,-2112,-191,-3,-18,1
46,-2102,-177,0,-18,8
45,-2089,-167,-3,-19,10
51,-2084,-164,-8,-14,4
53,-2087,-175,-19,-5,-1
48,-2103,-188,-25,-1,-3
35,-2104,-191,-18,-7,-2
27,-2094,-189,-9,-13,2
24,-2088,-177,-13,-13,9
27,-2092,-181,-22,-9,14
24,-2094,-182,-25,-14,11
21,-2088,-184,-23,-15,5
30,-2086,-181,-22,-16,1
42,-2087,-184,-25,-16,-1
66,-2076,-185,-27,-17,1
68,-2077,-185,-33,-15,11
69,-2093,-202,-38,-12,15
68,-2101,-210,-36,-10,15
54,-2104,-216,-33,2,14
39,-2128,-227,-31,3,13
36,-2133,-228,-22,-4,11
33,-2112,-211,-8,-5,6
35,-2111,-207,-3,-2,8
35,-2112,-191,-5,1,10
24,-2097,-180,-3,-3,12
14,-2096,-171,-9,-3,12
10,-2105,-175,-19,-3,7
11,-2120,-182,-24,-4,4
15,-2127,-201,-24,-5,-2
26,-2132,-207,-17,-10,-4
32,-2118,-203,-10,-14,-2
38,-2115,-204,-6,-15,0
43,-2118,-207,-6,-17,4
50,-2111,-200,-2,-13,5
49,-2095,-181,3,-12,3
39,-2087,-178,-4,-10,4
38,-2084,-181,-11,-13,5
41,-2083,-179,-9,-15,11
27,-2085,-184,-13,-17,13
32,-2096,-186,-22,-18,13
34,-2099,-187,-19,-17,13
27,-2096,-188,-13,-10,9
29,-2099,-191,-17,-5,2
34,-2099,-197,-17,-6,-1
42,-2103,-195,-15,-8,-4
42,-2114,-203,-16,-6,-7
37,-2123,-214,-12,-7,-8
39,-2117,-199,-1,-12,-8
43,-2100,-185,5,-8,-7
31,-2100,-179,0,-4,-1
22,-2114,-189,-2,-4,-1
31,-2104,-179,0,-6,-9
33,-2100,-183,-3,-6,-12
21,-2117,-199,-8,-5,-12
36,-2114,-197,-2,-9,-7
34,-2093,-187,6,-15,4
30,-2082,-180,1,-21,10
31,-2090,-183,-7,-20,10
54,-2085,-179,-9,-12,-2
64,-2081,-182,-15,-5,-11
63,-2102,-203,-22,5,-15
60,-2114,-214,-17,2,-9
61,-2099,-196,1,-9,2
47,-2080,-179,6,-12,8
23,-2092,-185,-3,-4,7
23,-2102,-183,-6,-4,4
21,-2093,-180,-6,-7,-3
25,-2087,-183,-12,-1,-10
38,-2095,-191,-21,1,-9
50,-2108,-202,-24,-1,-3
61,-2106,-202,-20,-5,3
63,-2115,-208,-16,-6,13
51,-2110,-207,-6,-9,21
38,-2096,-183,5,-13,22
24,-2093,-167,3,-10,17
17,-2100,-176,-8,-6,5
20,-2110,-183,-13,-4,-4
16,-2112,-193,-10,0,-9
14,-2114,-187,-7,-6,-15
25,-2108,-183,-3,-10,-16
44,-2086,-177,-6,-10,-13
52,-2096,-179,-15,-7,-5
49,-2105,-185,-16,-13,4
44,-2088,-173,-4,-18,11
34,-2077,-164,-6,-17,14
34,-2088,-172,-15,-14,18
32,-2099,-177,-22,-10,16
17,-2099,-187,-22,-12,12
11,-2105,-197,-21,-12,12
32,-2115,-200,-21,-15,11
48,-2102,-189,-11,-15,8
42,-2087,-185,-7,-22,13
39,-2081,-171,-10,-30,16
39,-2089,-179,-15,-24,3
50,-2087,-172,-20,-12,-12
52,-2088,-187,-28,3,-20
65,-2108,-201,-35,-3,-21
68,-2113,-205,-28,-4,-16
58,-2130,-231,-27,4,-11
62,-2153,-252,-22,-2,-3
55,-2161,-246,-3,-7,4
46,-2141,-219,16,-7,0
32,-2122,-200,27,-5,-4
19,-2105,-182,32,-6,-6
18,-2075,-166,24,-7,5
8,-2090,-167,7,-13,27
0,-2094,-164,1,-21,26
6,-2074,-156,4,-27,9
24,-2056,-155,-4,-24,-1
33,-2071,-163,-24,-13,-7
41,-2088,-187,-34,-10,-14
34,-2113,-210,-35,-13,-16
32,-2136,-227,-27,-19,-14
36,-2142,-231,-11,-20,-16
42,-2125,-210,7,-21,-18
45,-2097,-179,18,-22,-14
27,-2097,-173,12,-21,-12
28,-2097,-164,4,-24,-18
53,-2079,-159,0,-18,-27
48,-2081,-167,-9,-15,-28
50,-2099,-184,-16,-13,-27
56,-2090,-199,-10,-16,-20
83,-2099,-200,-9,-23,-3
105,-2081,-193,-4,-20,9
88,-2073,-180,1,-16,17
75,-2076,-182,-4,-16,21
76,-2071,-180,-7,-15,21
63,-2064,-175,-4,-11,20
41,-2054,-167,-3,-7,19
35,-2053,-158,-10,-6,12
44,-2045,-154,-28,-5,1
69,-2064,-167,-49,5,-5
61,-2091,-195,-60,17,-7
42,-2126,-232,-63,18,-5
33,-2155,-242,-50,7,0
26,-2156,-244,-29,2,9
15,-2150,-230,-13,-5,17
10,-2150,-208,-9,-9,27
16,-2152,-202,-8,-9,29
19,-2139,-191,3,-13,19
22,-2124,-179,6,-12,9
31,-2119,-179,-4,-8,1
32,-2118,-178,-10,-6,-5
34,-2118,-184,-9,-8,-11
42,-2116,-190,-7,-7,-13
44,-2116,-198,-5,-7,-11
48,-2107,-190,1,-9,-9
42,-2099,-182,8,-14,-5
37,-2087,-172,9,-17,-3
24,-2087,-173,0,-11,-7
15,-2093,-181,-11,-11,-10
23,-2105,-187,-11,-17,-5
26,-2094,-186,-5,-22,-5
38,-2081,-184,-4,-25,-4
44,-2082,-181,-6,-23,3
37,-2072,-174,-7,-21,5
37,-2071,-173,-14,-17,-9
64,-2085,-183,-23,-13,-17
81,-2097,-200,-25,-10,-11
86,-2102,-204,-18,-12,-7
85,-2105,-203,-15,-10,3
80,-2108,-205,-13,-11,19
63,-2105,-191,-7,-10,22
48,-2092,-189,-3,-5,19
23,-2109,-201,-13,-2,22
22,-2132,-211,-16,-2,13
35,-2126,-201,-6,-4,2
34,-2112,-206,-5,-5,-2
38,-2129,-216,-9,-5,-4
53,-2125,-206,2,-9,-6
53,-2107,-190,17,-9,-6
48,-2085,-167,18,-7,-5
41,-2076,-159,12,-8,0
33,-2069,-158,1,-7,0
32,-2085,-162,-14,-6,0
29,-2089,-168,-17,-5,-1
23,-2095,-181,-21,-6,-8
34,-2116,-189,-26,-10,-9
50,-2118,-204,-19,-6,-7
62,-2120,-206,-9,-6,-7
74,-2118,-200,-1,-12,2
72,-2108,-191,7,-12,11
78,-2091,-184,6,-4,7
83,-2090,-176,0,2,5
65,-2088,-172,-2,5,8
48,-2088,-169,-2,4,5
26,-2087,-157,0,1,5
1,-2069,-151,-4,-3,5
-24,-2083,-164,-21,-5,0
-14,-2106,-185,-33,-9,-9
2,-2103,-186,-28,-12,-17
18,-2098,-187,-20,-14,-23
45,-2099,-190,-22,-18,-18
64,-2099,-185,-21,-21,-4
68,-2087,-176,-19,-21,2
69,-2092,-183,-23,-19,7
57,-2100,-185,-25,-16,11
50,-2102,-188,-20,-19,12
45,-2103,-184,-20,-18,12
46,-2106,-185,-20,-14,10
44,-2106,-192,-16,-13,4
38,-2105,-197,-12,-13,0
39,-2103,-193,-11,-13,-5
47,-2093,-186,-15,-13,-8
54,-2091,-195,-20,-16,1
75,-2095,-197,-20,-16,10
85,-2090,-197,-15,-13,13
77,-2094,-202,-13,-8,13
70,-2098,-197,-12,-6,18
62,-2102,-190,-11,-4,17
46,-2096,-186,-13,1,13
37,-2105,-190,-18,2,11
35,-2111,-199,-14,2,7
36,-2115,-202,-12,-1,12
27,-2119,-195,-10,-6,20
30,-2106,-183,-2,-9,14
35,-2094,-181,-5,-6,4
58,-2106,-182,-14,-3,-1
57,-2108,-194,-18,6,-7
51,-2109,-200,-15,7,-7
45,-2103,-191,-4,-4,4
34,-2076,-168,10,-10,13
13,-2053,-151,9,-13,12
-12,-2054,-143,-7,-13,7
-19,-2062,-146,-20,-20,-3
-22,-2062,-152,-35,-21,-20
-16,-2076,-165,-49,-17,-34
11,-2092,-182,-60,-12,-41
49,-2122,-217,-67,-13,-41
96,-2143,-248,-58,-21,-25
131,-2145,-243,-34,-21,3
143,-2125,-219,-13,-23,26
147,-2121,-209,-7,-11,36
133,-2138,-228,-10,0,41
107,-2151,-230,-1,5,40
77,-2142,-220,17,6,37
44,-2129,-206,32,9,37
6,-2116,-179,36,4,37
-23,-2103,-164,29,-6,22
-31,-2096,-166,12,-5,-5
-20,-2095,-175,-4,-3,-26
-2,-2102,-188,-15,-2,-40
27,-2111,-216,-16,-8,-44
61,-2105,-216,-9,-14,-33
83,-2099,-212,0,-15,-13
77,-2086,-191,7,-17,8
63,-2088,-191,5,-13,20
57,-2097,-189,0,-7,20
52,-2094,-180,-1,-10,21
52,-2097,-184,-4,-6,16
52,-2098,-184,-1,-4,6
51,-2094,-180,1,-3,-3
52,-2092,-178,0,-2,-3
42,-2092,-179,-1,0,-5
32,-2097,-180,-3,0,-6
39,-2095,-180,-3,-3,-6
44,-2094,-176,-4,2,-9
48,-2099,-180,-10,6,-12
55,-2110,-192,-14,5,-4
50,-2118,-192,-9,0,9
35,-2113,-183,0,-1,14
19,-2108,-176,5,-4,15
7,-2110,-178,2,-9,13
12,-2106,-173,-2,-11,1
21,-2096,-162,-5,-11,-7
32,-2095,-163,-10,-11,-14
51,-2099,-182,-16,-10,-18
62,-2106,-190,-17,-11,-12
66,-2103,-188,-15,-11,-4
54,-2105,-196,-6,-12,0
52,-2098,-194,-2,-12,4
62,-2093,-184,-2,-10,7
60,-2092,-183,-3,-5,11
52,-2098,-183,-8,-6,9
48,-2107,-184,-10,-9,8
45,-2104,-193,-8,-5,5
51,-2109,-197,-6,-5,2
48,-2099,-185,0,-6,5
45,-2092,-174,-1,-7,12
42,-2092,-166,-3,-6,11
46,-2080,-157,-5,-5,6
47,-2085,-166,-13,-3,1
47,-2099,-178,-24,1,-4
48,-2118,-204,-24,3,-9
49,-2121,-203,-15,0,-6
51,-2106,-188,-6,-1,5
35,-2093,-173,0,-3,10
32,-2091,-166,1,-9,9
29,-2083,-155,-2,-14,12
22,-2074,-157,-9,-10,8
29,-2077,-159,-15,-7,0
25,-2083,-166,-23,-7,0
22,-2099,-175,-32,-11,-1
42,-2115,-188,-36,-9,-4
60,-2114,-187,-28,-8,-3
63,-2106,-186,-24,-9,1
59,-2119,-191,-28,-8,9
52,-2130,-206,-23,-10,8
51,-2132,-205,-8,-9,8
58,-2111,-185,2,-10,14
41,-2104,-182,-2,-11,21
37,-2114,-189,-4,-11,14
46,-2102,-187,-2,-13,5
49,-2089,-176,-4,-6,1
49,-2094,-188,-7,-2,-1
47,-2095,-188,-5,-8,-2
47,-2084,-177,-4,-12,2
43,-2082,-180,-12,-7,0
36,-2091,-181,-17,-5,-7
40,-2104,-191,-24,-5,-7
42,-2118,-213,-24,-2,-5
45,-2124,-215,-12,-1,4
48,-2117,-202,0,-9,15
55,-2119,-194,2,-13,16
59,-2111,-192,5,-10,15
49,-2102,-180,9,-8,18
45,-2100,-168,9,-13,23
43,-2087,-160,8,-12,22
35,-2077,-149,4,-8,15
36,-2070,-148,-6,-7,10
35,-2077,-154,-17,-8,4
34,-2090,-167,-28,-4,-8
43,-2100,-181,-35,1,-14
53,-2111,-201,-30,2,-14
56,-2126,-214,-23,3,-12
54,-2127,-213,-10,-4,-5
42,-2112,-194,4,-7,7
30,-2101,-176,6,-12,12
27,-2099,-171,-2,-8,13
31,-2093,-169,-5,-10,12
34,-2084,-160,-8,-13,9
39,-2073,-151,-11,-13,10
48,-2063,-151,-23,-14,11
49,-2076,-154,-36,-11,7
45,-2085,-165,-46,-9,-1
37,-2097,-184,-54,-7,-3
28,-2118,-195,-56,-6,-5
27,-2127,-211,-48,-5,-8
23,-2140,-224,-36,-11,-6
25,-2143,-225,-23,-10,-6
31,-2136,-219,-8,-13,-8
37,-2126,-198,2,-18,-4
49,-2109,-189,2,-18,0
62,-2096,-171,-1,-23,8
67,-2091,-167,-7,-18,10
64,-2091,-170,-14,-11,9
53,-2101,-183,-18,-6,5
57,-2107,-193,-14,-5,2
56,-2106,-198,-7,-8,2
52,-2113,-203,-6,-7,4
43,-2108,-193,1,-4,1
37,-2100,-185,5,-7,-3
38,-2093,-182,3,-9,-5
31,-2098,-186,1,-7,-2
24,-2106,-187,1,-4,-1
26,-2104,-182,1,-9,2
22,-2095,-171,1,-17,8
28,-2086,-163,-3,-22,9
40,-2074,-163,-12,-21,5
51,-2070,-162,-23,-19,4
63,-2085,-182,-35,-14,0
79,-2106,-208,-34,-11,3
74,-2111,-214,-19,-10,9
55,-2111,-208,-6,-9,15
50,-2099,-183,1,-13,25
34,-2089,-164,-3,-10,26
32,-2099,-175,-15,-4,13
39,-2118,-177,-19,2,2
45,-2111,-176,-12,6,-10
20,-2099,-167,-10,12,-23
18,-2120,-186,-20,27,-44
30,-2141,-209,-13,16,-58
31,-2132,-223,10,14,-62
33,-2142,-229,22,7,-60
44,-2134,-225,34,-2,-50
57,-2110,-204,42,-5,-38
81,-2099,-186,31,-3,-30
84,-2097,-182,21,9,-22
55,-2105,-173,14,14,-15
18,-2120,-186,0,17,-14
-3,-2109,-205,8,-33,4
15,-2151,-203,0,-14,13
21,-2096,-155,37,-27,9
35,-2020,-129,33,-43,1
63,-2106,-178,-29,-1,-9
65,-2132,-206,-18,-3,-16
71,-2096,-185,12,-10,-26
83,-2079,-180,12,-28,-9
85,-2077,-168,13,-43,26
81,-2064,-148,11,-36,33
81,-2048,-143,-4,-11,12
76,-2062,-158,-26,5,2
68,-2082,-168,-31,1,-3
66,-2078,-171,-22,-9,1
67,-2080,-170,-19,-20,22
52,-2095,-181,-25,-15,34
55,-2106,-181,-29,-4,24
64,-2119,-192,-31,2,8
54,-2140,-202,-26,5,4
51,-2137,-209,-11,0,17
48,-2124,-185,8,-10,39
32,-2104,-163,15,-20,45
22,-2087,-150,9,-20,40
15,-2082,-143,-6,-16,28
18,-2087,-157,-22,-11,6
28,-2097,-175,-33,-4,-6
33,-2120,-197,-31,-4,-5
45,-2125,-211,-18,-15,2
63,-2111,-198,0,-26,10
66,-2098,-176,7,-27,15
59,-2098,-172,1,-16,15
69,-2086,-179,-6,-9,8
84,-2091,-177,-9,-7,8
72,-2093,-178,-9,-5,14
50,-2091,-179,-6,-6,20
47,-2094,-169,-6,-14,26
41,-2089,-158,-6,-16,27
26,-2083,-167,-15,-11,19
28,-2102,-179,-25,-6,8
41,-2117,-191,-23,-5,-3
63,-2100,-188,-12,-5,-8
71,-2096,-198,-13,-2,-3
70,-2116,-210,-13,-6,12
70,-2111,-196,4,-12,24
71,-2087,-167,16,-12,26
63,-2081,-160,7,-6,30
37,-2091,-159,-3,1,26
23,-2097,-162,-11,1,14
19,-2101,-171,-17,2,8
13,-2121,-185,-16,2,2
22,-2117,-190,-5,-1,-1
36,-2105,-187,4,-3,9
50,-2097,-174,8,-12,23
48,-2077,-151,17,-22,30
39,-2044,-115,19,-23,31
22,-2030,-93,-4,-9,22
1,-2046,-100,-39,1,1
8,-2089,-133,-71,1,-15
35,-2116,-159,-78,-3,-12
33,-2133,-167,-63,-9,4
8,-2143,-165,-47,-15,13
24,-2144,-185,-39,-32,23
23,-2150,-175,-26,-101,62
0,-2127,-161,-18,-66,52
12,-2133,-183,-45,4,-6
20,-2169,-215,-59,-3,-27
34,-2166,-237,-43,-3,-37
64,-2153,-245,-23,-11,-43
75,-2134,-229,3,-27,-16
48,-2101,-209,17,-38,14
49,-2084,-189,9,-40,7
56,-2083,-194,-5,-23,-18
54,-2084,-204,-18,0,-36
64,-2102,-224,-21,9,-41
60,-2104,-231,-9,2,-32
74,-2091,-209,5,-14,-14
82,-2068,-190,8,-19,3
84,-2066,-181,0,-14,15
78,-2075,-180,-14,-1,11
80,-2083,-180,-20,12,0
77,-2096,-178,-18,18,4
56,-2098,-172,-14,13,15
18,-2105,-179,-15,7,18
11,-2121,-191,-21,3,11
21,-2128,-201,-19,7,-1
17,-2136,-216,-15,15,-13
20,-2152,-242,-7,19,-19
34,-2143,-232,16,7,-14
51,-2112,-198,38,-4,-5
61,-2087,-168,44,-10,6
49,-2067,-140,39,-10,20
40,-2056,-130,23,-4,16
55,-2060,-124,1,0,7
57,-2068,-130,-16,10,4
50,-2072,-131,-21,6,3
32,-2072,-123,-25,-5,7
20,-2081,-143,-37,-5,10
8,-2119,-170,-52,-5,4
9,-2153,-207,-49,1,-7
22,-2159,-220,-29,2,-18
26,-2155,-222,-8,-6,-17
32,-2147,-204,8,-13,-12
43,-2123,-181,17,-19,-6
51,-2090,-165,19,-23,1
51,-2076,-152,13,-26,6
40,-2061,-136,3,-25,9
35,-2057,-128,-10,-18,12
27,-2064,-132,-24,-20,6
24,-2070,-146,-37,-20,-5
17,-2099,-183,-54,-15,-17
30,-2134,-230,-57,-17,-29
45,-2137,-241,-34,-21,-27
49,-2113,-218,-7,-29,-16
55,-2084,-176,3,-37,-11
64,-2069,-164,-2,-32,-6
65,-2067,-154,-10,-24,-8
77,-2071,-163,-24,-8,-17
90,-2078,-178,-37,3,-22
80,-2107,-195,-45,5,-12
66,-2139,-225,-40,0,0
70,-2151,-238,-22,-10,12
51,-2139,-224,6,-18,24
14,-2127,-188,32,-45,28
90,-2076,-181,10,-15,11
88,-2115,-174,-12,2,13
26,-2092,-178,2,18,0
47,-2112,-197,-11,11,-16
90,-2093,-185,5,-54,17
85,-2054,-161,15,-26,39
59,-2059,-161,-3,2,23
48,-2066,-151,-14,12,10
42,-2061,-151,-26,6,-2
42,-2090,-176,-40,-4,-3
45,-2112,-185,-37,-8,23
27,-2111,-178,-28,-8,38
23,-2130,-185,-33,-5,26
29,-2149,-203,-38,-3,13
30,-2149,-216,-23,-4,8
34,-2140,-213,-9,-7,9
31,-2141,-219,-1,-11,19
25,-2129,-195,12,-16,18
28,-2113,-182,18,-22,7
52,-2099,-173,14,-20,-3
60,-2080,-160,11,-17,1
38,-2074,-155,3,-15,6
46,-2078,-166,-8,-11,-1
65,-2082,-175,-12,-13,-5
52,-2094,-191,-8,-7,-6
31,-2108,-198,-10,-5,-3
38,-2110,-190,-4,-14,9
30,-2086,-169,6,-17,15
24,-2069,-159,-3,-15,11
22,-2089,-159,-17,-16,8
27,-2101,-165,-22,-15,0
49,-2094,-166,-23,-11,-12
55,-2104,-172,-25,-5,-14
67,-2127,-193,-28,-4,-7
65,-2134,-204,-18,-9,0
53,-2134,-197,-6,-14,9
34,-2129,-200,2,-18,15
23,-2123,-188,8,-15,12
28,-2113,-175,11,-10,2
22,-2099,-175,7,-7,-8
26,-2098,-171,-3,-11,-18
63,-2100,-179,-7,-10,-23
83,-2093,-180,-5,-10,-19
87,-2087,-175,-3,-10,-14
78,-2081,-171,-1,-8,-8
55,-2083,-177,-2,-5,-5
52,-2095,-188,-7,5,-9
49,-2104,-192,-3,5,-11
41,-2082,-176,3,1,-9
29,-2083,-163,-4,-4,1
28,-2098,-180,-14,-6,12
31,-2113,-181,-13,-7,20
31,-2110,-174,-6,-12,21
25,-2097,-169,0,-15,15
28,-2089,-155,-2,-17,11
35,-2073,-147,-6,-14,3
42,-2068,-146,-18,-8,-6
60,-2088,-158,-37,-6,-8
69,-2100,-174,-42,-4,-9
58,-2107,-185,-34,-6,-7
38,-2105,-186,-25,-7,2
25,-2105,-186,-22,-10,11
23,-2115,-184,-26,-15,16
25,-2124,-191,-28,-14,14
33,-2119,-203,-24,-12,7
47,-2115,-203,-15,-20,9
57,-2096,-187,-4,-24,20
60,-2073,-165,-1,-24,25
76,-2062,-157,-9,-19,22
78,-2072,-161,-25,-8,15
61,-2099,-187,-34,-2,4
55,-2110,-197,-33,0,-8
43,-2119,-204,-24,0,-8
35,-2118,-203,-13,-1,-4
27,-2119,-203,-5,-3,-5
15,-2122,-202,-1,-10,-8
21,-2114,-190,-4,-15,-8
44,-2101,-171,-6,-7,-10
55,-2092,-161,-14,-5,-8
62,-2099,-162,-24,-7,-4
70,-2101,-170,-28,-9,2
62,-2110,-175,-27,-11,10
45,-2123,-187,-25,-8,14
45,-2132,-200,-17,-5,12
38,-2122,-210,-6,-8,8
26,-2106,-195,2,-7,0
29,-2097,-186,5,-4,-8
45,-2080,-167,7,-6,-15
60,-2055,-152,1,-6,-19
