ax,ay,az,gx,gy,gz
399,-1919,-1677,-644,-1714,-590
544,-2003,-1830,-694,-1735,-569
740,-2078,-1966,-702,-1706,-466
792,-2264,-2151,-686,-1560,-344
768,-2438,-2280,-515,-1382,-374
682,-2370,-2126,-225,-1277,-452
667,-2180,-1873,18,-1283,-498
726,-2057,-1724,137,-1309,-541
694,-2055,-1728,158,-1296,-550
698,-2124,-1842,151,-1304,-572
890,-2179,-1955,181,-1296,-596
1034,-2229,-2037,268,-1249,-585
1079,-2281,-2077,414,-1150,-609
1220,-2237,-2033,566,-1046,-653
1301,-2183,-1946,680,-963,-610
1267,-2127,-1820,759,-902,-517
1187,-2064,-1731,805,-866,-470
1222,-2034,-1726,811,-783,-520
1350,-2007,-1751,816,-680,-540
1319,-1969,-1730,834,-560,-512
1411,-1959,-1781,806,-408,-525
1422,-1971,-1802,832,-292,-481
1372,-1936,-1780,895,-237,-397
1359,-1902,-1745,957,-210,-304
1307,-1890,-1728,999,-196,-213
1226,-1915,-1717,1030,-164,-147
1203,-1904,-1698,1073,-121,-124
1196,-1844,-1656,1127,-71,-112
1121,-1778,-1580,1157,11,-104
1033,-1753,-1541,1157,141,-150
1047,-1726,-1508,1173,247,-213
1051,-1679,-1455,1197,325,-225
1018,-1653,-1422,1199,398,-191
985,-1650,-1398,1191,456,-136
884,-1662,-1371,1192,472,-66
792,-1648,-1339,1204,463,2
768,-1600,-1284,1221,447,50
747,-1536,-1218,1234,443,94
708,-1461,-1131,1245,449,110
745,-1358,-1018,1239,474,95
810,-1279,-931,1193,532,83
857,-1196,-843,1145,579,90
834,-1105,-735,1075,651,97
774,-1118,-732,958,738,84
783,-1174,-749,857,794,91
756,-1200,-740,808,775,173
691,-1191,-701,768,722,293
682,-1183,-682,715,698,375
669,-1200,-673,667,680,437
646,-1155,-627,628,678,478
623,-1096,-560,565,734,475
563,-1088,-509,473,815,447
531,-1088,-464,387,891,383
549,-1070,-403,305,927,347
496,-1055,-323,221,892,406
392,-1034,-247,134,817,510
292,-1011,-173,36,716,597
232,-998,-142,-82,630,662
184,-1038,-185,-209,542,735
171,-1114,-298,-310,419,834
222,-1148,-363,-362,298,926
282,-1148,-397,-399,251,982
246,-1122,-408,-443,259,987
177,-1120,-441,-505,311,923
228,-1153,-528,-593,397,826
264,-1210,-627,-660,422,821
246,-1251,-706,-713,370,904
328,-1261,-730,-733,268,1018
384,-1262,-748,-749,123,1198
242,-1254,-722,-774,-9,1431
32,-1275,-672,-823,-9,1512
-129,-1328,-673,-897,119,1366
-228,-1356,-689,-967,286,1101
-217,-1410,-731,-1059,488,832
-149,-1472,-837,-1156,617,642
-38,-1536,-934,-1216,601,603
26,-1589,-1027,-1251,520,676
100,-1620,-1099,-1254,436,759
202,-1636,-1141,-1227,385,796
271,-1618,-1171,-1189,350,841
314,-1594,-1164,-1151,307,938
252,-1604,-1113,-1130,276,1077
175,-1623,-1049,-1137,267,1166
226,-1558,-968,-1170,273,1172
212,-1577,-971,-1275,378,1124
151,-1715,-1121,-1413,527,1001
235,-1879,-1352,-1496,615,864
376,-2054,-1586,-1503,634,863
391,-2223,-1796,-1441,596,1006
430,-2339,-1941,-1314,541,1169
441,-2371,-1990,-1138,484,1337
308,-2325,-1907,-960,466,1462
53,-2287,-1764,-857,592,1418
-121,-2304,-1704,-821,813,1180
-111,-2378,-1732,-807,969,936
-43,-2520,-1822,-809,1028,865
-50,-2635,-1930,-760,994,921
-115,-2691,-1997,-646,930,981
-217,-2722,-2021,-487,886,993
-219,-2700,-1994,-316,894,938
-180,-2612,-1885,-153,948,841
-208,-2519,-1748,-28,1024,717
-177,-2475,-1681,39,1092,596
-131,-2472,-1647,83,1127,552
-155,-2488,-1629,138,1127,565
-226,-2513,-1626,211,1082,596
-354,-2515,-1609,311,993,641
-438,-2485,-1577,405,897,680
-484,-2480,-1576,472,848,671
-500,-2488,-1595,541,846,588
-488,-2474,-1590,619,902,439
-485,-2457,-1577,698,984,270
-493,-2426,-1538,787,1020,147
-485,-2337,-1438,882,973,101
-518,-2271,-1339,928,903,107
-638,-2262,-1294,928,857,102
-697,-2280,-1320,934,793,45
-671,-2279,-1356,955,695,-6
-661,-2272,-1401,976,642,-43
-708,-2254,-1419,1023,654,-142
-730,-2201,-1400,1118,684,-312
-693,-2086,-1304,1216,714,-460
-717,-1989,-1180,1281,708,-535
-790,-1916,-1084,1322,613,-544
-779,-1822,-979,1332,438,-507
-776,-1759,-922,1296,257,-442
-825,-1717,-877,1248,113,-417
-812,-1661,-842,1197,42,-501
-750,-1625,-812,1150,17,-638
-669,-1593,-809,1108,16,-767
-575,-1571,-825,1076,16,-871
-493,-1609,-899,1057,-13,-922
-403,-1600,-909,1090,-130,-906
-368,-1501,-833,1125,-270,-850
-372,-1423,-767,1095,-347,-822
-409,-1402,-735,1027,-351,-874
-431,-1386,-732,968,-330,-977
-383,-1317,-681,935,-362,-1060
-312,-1201,-596,883,-389,-1106
-307,-1112,-528,795,-400,-1136
-307,-1023,-469,701,-441,-1175
-259,-893,-378,609,-530,-1196
-158,-780,-289,467,-599,-1204
15,-692,-220,292,-642,-1232
224,-600,-166,120,-682,-1252
352,-567,-128,-68,-705,-1225
386,-596,-138,-263,-726,-1186
455,-625,-173,-413,-787,-1154
482,-670,-214,-525,-867,-1057
400,-753,-307,-610,-986,-902
292,-868,-429,-654,-1106,-756
188,-922,-523,-641,-1226,-655
87,-911,-552,-597,-1305,-618
34,-827,-498,-592,-1290,-678
126,-780,-496,-706,-1171,-846
329,-901,-692,-893,-1030,-1039
545,-1149,-1005,-1011,-937,-1139
728,-1360,-1250,-997,-932,-1097
774,-1503,-1371,-901,-1014,-905
671,-1580,-1359,-768,-1151,-640
462,-1536,-1221,-643,-1295,-422
251,-1439,-1065,-601,-1383,-334
101,-1389,-977,-656,-1400,-355
17,-1397,-998,-762,-1359,-462
27,-1476,-1136,-852,-1292,-632
305,-1575,-1303,-893,-1219,-821
693,-1681,-1459,-896,-1157,-926
937,-1805,-1610,-847,-1145,-875
1070,-1868,-1638,-747,-1202,-695
1021,-1886,-1585,-645,-1296,-453
875,-1856,-1505,-563,-1373,-272
780,-1796,-1421,-525,-1382,-216
662,-1763,-1393,-529,-1320,-243
514,-1758,-1399,-533,-1234,-324
358,-1770,-1403,-511,-1173,-433
316,-1728,-1367,-481,-1161,-535
369,-1741,-1388,-508,-1178,-571
432,-1825,-1520,-576,-1249,-510
524,-1983,-1671,-632,-1316,-403
704,-2103,-1772,-639,-1332,-337
831,-2201,-1855,-591,-1282,-309
757,-2331,-1934,-490,-1213,-274
685,-2385,-1976,-333,-1178,-284
719,-2336,-1897,-158,-1145,-316
698,-2297,-1793,-55,-1069,-344
633,-2347,-1793,-1,-1009,-411
718,-2378,-1845,37,-1008,-453
906,-2411,-1913,47,-1009,-407
932,-2506,-2008,71,-967,-355
894,-2560,-2075,178,-878,-400
968,-2501,-2054,333,-790,-471
997,-2429,-1988,459,-707,-465
924,-2376,-1958,564,-634,-434
934,-2264,-1845,679,-598,-426
1004,-2148,-1741,742,-544,-428
1031,-2155,-1762,748,-458,-431
1079,-2210,-1841,781,-402,-402
1127,-2171,-1836,877,-412,-319
1112,-2075,-1761,972,-395,-242
1020,-2017,-1693,1029,-329,-213
957,-1999,-1698,1060,-257,-222
994,-1974,-1706,1103,-206,-213
1013,-1925,-1631,1161,-151,-160
928,-1897,-1571,1195,-73,-128
836,-1883,-1517,1236,-12,-128
831,-1780,-1424,1286,32,-125
828,-1693,-1337,1297,103,-113
755,-1656,-1275,1289,169,-101
714,-1588,-1232,1294,183,-94
729,-1524,-1171,1289,188,-62
731,-1500,-1104,1263,227,-13
742,-1477,-1068,1249,243,31
747,-1407,-1018,1256,203,103
738,-1302,-922,1230,190,192
713,-1250,-836,1152,251,213
662,-1234,-818,1067,348,145
653,-1198,-793,1003,427,69
681,-1144,-737,929,474,48
699,-1095,-715,835,519,80
696,-1066,-703,753,502,161
664,-1039,-702,685,473,248
649,-1031,-727,622,456,311
675,-1019,-753,569,441,370
747,-969,-755,522,431,444
769,-937,-768,455,455,518
764,-910,-789,389,525,554
735,-847,-738,322,621,526
694,-799,-693,217,767,446
711,-835,-710,76,892,421
725,-939,-800,-59,889,559
600,-1044,-881,-143,746,833
379,-1106,-911,-184,604,1062
274,-1136,-939,-209,502,1173
188,-1146,-900,-224,411,1241
59,-1126,-842,-268,410,1247
5,-1111,-801,-333,454,1174
2,-1098,-765,-410,518,1084
-54,-1106,-743,-508,593,1012
-86,-1110,-714,-596,651,902
2,-1089,-689,-683,699,776
47,-1122,-721,-784,706,734
5,-1199,-782,-866,644,794
-35,-1264,-822,-909,535,909
-59,-1268,-783,-927,392,1039
-142,-1256,-741,-950,268,1136
-319,-1258,-716,-997,206,1158
-429,-1245,-696,-1082,221,1069
-414,-1271,-763,-1201,295,903
-381,-1406,-936,-1323,372,767
-271,-1498,-1078,-1383,368,697
-52,-1541,-1182,-1407,341,661
98,-1641,-1283,-1435,353,695
35,-1777,-1363,-1433,372,765
23,-1858,-1403,-1400,415,748
119,-1890,-1397,-1339,460,693
196,-1886,-1385,-1286,519,674
246,-1877,-1379,-1252,590,676
290,-1877,-1387,-1226,651,684
280,-1910,-1436,-1200,688,729
253,-1969,-1532,-1176,651,844
276,-2000,-1615,-1144,559,1018
289,-2029,-1710,-1115,519,1166
204,-2130,-1847,-1081,570,1217
147,-2288,-1990,-1042,752,1130
170,-2451,-2082,-961,951,1004
187,-2542,-2117,-811,1017,991
138,-2524,-2067,-630,960,1114
38,-2444,-1945,-479,900,1250
-55,-2369,-1828,-379,912,1268
-67,-2357,-1795,-329,986,1173
-90,-2403,-1842,-275,1026,1104
-137,-2462,-1921,-210,1001,1115
-181,-2505,-1963,-129,952,1157
-257,-2555,-1972,-34,942,1150
-327,-2609,-1980,78,974,1075
-382,-2647,-1958,223,1015,990
-466,-2651,-1879,378,1031,934
-549,-2567,-1728,532,998,874
-565,-2473,-1596,631,973,787
-599,-2421,-1515,683,944,695
-633,-2401,-1509,704,927,583
-648,-2404,-1540,731,917,457
-611,-2385,-1542,775,908,335
-543,-2349,-1537,813,923,212
-499,-2343,-1558,848,941,107
-466,-2333,-1557,903,943,32
-470,-2294,-1526,979,939,-23
-525,-2252,-1476,1053,943,-67
-612,-2200,-1439,1122,942,-119
-682,-2115,-1356,1187,919,-174
-704,-2018,-1241,1221,879,-231
-696,-1951,-1160,1209,842,-294
-715,-1922,-1140,1184,787,-349
-706,-1905,-1133,1166,709,-394
-648,-1861,-1105,1172,618,-425
-625,-1798,-1042,1187,533,-443
-620,-1722,-974,1186,477,-486
-582,-1645,-890,1175,436,-548
-568,-1580,-790,1141,437,-619
-534,-1538,-749,1100,432,-712
-458,-1482,-694,1087,346,-760
-396,-1400,-620,1058,233,-733
-392,-1341,-568,993,140,-685
-424,-1292,-515,920,37,-653
-451,-1209,-448,830,-74,-656
-488,-1163,-404,700,-125,-700
-519,-1165,-439,549,-137,-779
-527,-1212,-526,436,-196,-848
-483,-1288,-671,373,-301,-860
-382,-1351,-794,368,-434,-804
-273,-1345,-824,418,-573,-715
-142,-1267,-772,480,-683,-653
-136,-1161,-634,517,-740,-632
-217,-1053,-489,483,-716,-696
-200,-971,-396,384,-660,-832
-126,-938,-346,254,-643,-930
-55,-950,-374,106,-672,-934
-9,-1006,-472,-30,-779,-860
13,-1077,-575,-126,-928,-759
113,-1128,-676,-196,-1032,-693
247,-1192,-777,-246,-1070,-653
321,-1238,-849,-260,-1051,-640
362,-1226,-850,-257,-974,-676
331,-1227,-838,-280,-850,-747
285,-1236,-848,-301,-762,-812
243,-1195,-791,-309,-757,-810
165,-1158,-755,-347,-821,-734
108,-1126,-725,-402,-965,-622
94,-1059,-673,-468,-1109,-525
154,-1007,-653,-579,-1159,-501
294,-1019,-703,-728,-1131,-555
425,-1074,-835,-856,-1061,-645
514,-1210,-1004,-932,-929,-748
611,-1351,-1176,-933,-818,-822
623,-1426,-1241,-830,-817,-791
507,-1409,-1198,-709,-912,-635
264,-1413,-1152,-650,-1058,-420
30,-1417,-1118,-641,-1232,-241
-171,-1421,-1104,-668,-1404,-141
-275,-1458,-1126,-758,-1506,-155
-229,-1529,-1205,-881,-1506,-311
-153,-1647,-1336,-977,-1449,-549
-71,-1814,-1525,-1008,-1381,-788
22,-1968,-1693,-946,-1411,-930
67,-2059,-1755,-796,-1577,-935
238,-2010,-1704,-633,-1747,-882
492,-1920,-1606,-564,-1784,-810
475,-1949,-1595,-614,-1700,-710
260,-2123,-1693,-678,-1571,-706
234,-2198,-1770,-688,-1503,-823
304,-2213,-1827,-672,-1464,-915
323,-2319,-1948,-681,-1428,-930
406,-2421,-2077,-635,-1426,-932
684,-2434,-2150,-511,-1460,-944
1039,-2436,-2171,-399,-1372,-929
1220,-2520,-2195,-281,-1228,-837
1192,-2560,-2219,-57,-1180,-692
1165,-2430,-2118,171,-1194,-525
1180,-2255,-1928,292,-1136,-375
1003,-2272,-1861,283,-889,-370
836,-2320,-1901,302,-679,-515
872,-2295,-1935,379,-583,-632
931,-2262,-1929,450,-572,-591
904,-2268,-1915,507,-560,-486
805,-2270,-1900,589,-550,-426
796,-2215,-1866,683,-532,-426
918,-2113,-1787,752,-483,-416
985,-2067,-1761,775,-380,-391
962,-2107,-1817,812,-263,-385
1024,-2059,-1809,914,-200,-366
1085,-1964,-1734,1015,-149,-297
1008,-1946,-1707,1069,-102,-192
836,-1957,-1720,1121,-73,-102
748,-1929,-1716,1187,-46,-64
815,-1841,-1671,1234,13,-71
881,-1774,-1612,1251,123,-81
758,-1785,-1594,1268,233,-74
667,-1736,-1530,1330,274,-70
733,-1585,-1374,1389,267,-46
746,-1487,-1222,1387,270,23
706,-1417,-1135,1351,278,89
625,-1390,-1104,1301,285,124
564,-1397,-1105,1246,291,133
511,-1387,-1076,1198,289,133
460,-1385,-1043,1129,333,90
456,-1405,-1054,1053,438,8
497,-1403,-1045,1005,505,-41
534,-1370,-980,984,516,-17
528,-1328,-924,957,496,60
502,-1272,-854,928,459,134
513,-1199,-780,884,448,177
559,-1140,-711,821,474,186
626,-1085,-666,751,511,183
711,-1041,-654,677,551,201
779,-1026,-652,601,595,241
830,-969,-601,543,641,270
783,-940,-558,465,708,282
730,-947,-563,364,763,300
676,-978,-603,268,752,370
614,-1056,-687,162,717,480
522,-1157,-806,53,719,581
418,-1252,-860,-8,746,612
359,-1245,-837,-29,792,555
317,-1236,-798,-81,874,483
295,-1270,-810,-156,946,447
303,-1283,-813,-210,950,465
263,-1298,-805,-249,924,507
232,-1324,-818,-293,887,561
210,-1347,-824,-341,787,670
167,-1359,-810,-389,637,838
80,-1356,-740,-447,539,962
-46,-1382,-704,-530,568,924
-55,-1411,-724,-603,644,778
1,-1421,-751,-663,709,671
12,-1427,-768,-710,733,640
-6,-1389,-730,-738,713,642
-26,-1307,-628,-768,694,646
-58,-1212,-514,-823,684,650
-165,-1169,-450,-909,661,654
-317,-1167,-438,-991,583,673
-406,-1200,-480,-1082,456,705
-432,-1273,-601,-1165,293,760
-391,-1334,-722,-1220,113,837
-354,-1357,-800,-1262,5,864
-316,-1355,-839,-1306,16,758
-159,-1374,-931,-1363,123,558
-15,-1390,-1028,-1406,228,382
109,-1450,-1125,-1432,326,291
305,-1482,-1164,-1441,398,257
441,-1479,-1142,-1425,436,273
503,-1504,-1157,-1441,437,360
513,-1567,-1227,-1480,403,518
517,-1672,-1333,-1520,343,695
521,-1760,-1454,-1529,286,841
487,-1822,-1575,-1521,301,926
388,-1938,-1721,-1518,408,925
330,-2074,-1891,-1495,507,883
393,-2153,-2029,-1432,533,886
357,-2250,-2131,-1362,575,947
230,-2452,-2318,-1314,681,974
133,-2663,-2440,-1147,728,1022
53,-2671,-2386,-878,665,1133
27,-2552,-2182,-643,624,1221
-11,-2477,-2005,-518,664,1222
-96,-2496,-1981,-462,722,1146
-55,-2553,-2031,-423,790,1050
58,-2582,-2068,-356,854,986
58,-2577,-2069,-238,893,942
93,-2514,-2024,-99,916,910
138,-2430,-1934,20,924,938
28,-2400,-1897,116,914,992
-63,-2386,-1867,220,901,995
-82,-2368,-1806,326,917,957
-162,-2345,-1717,419,938,912
-276,-2328,-1660,489,945,846
-323,-2309,-1632,543,930,776
-339,-2308,-1628,578,916,730
-364,-2329,-1620,618,906,684
-423,-2317,-1588,674,904,609
-468,-2296,-1568,725,914,510
-452,-2289,-1523,779,929,424
-486,-2279,-1476,846,901,382
-534,-2233,-1429,926,832,335
-590,-2176,-1359,989,790,268
-651,-2153,-1328,1011,783,175
-587,-2126,-1325,1032,771,42
-544,-2088,-1306,1067,737,-60
-619,-2091,-1310,1097,704,-124
-661,-2075,-1302,1139,656,-189
-623,-2021,-1244,1197,601,-249
-606,-1929,-1160,1257,529,-281
-589,-1824,-1057,1293,466,-307
-553,-1733,-969,1287,409,-337
-564,-1677,-920,1260,333,-360
-584,-1636,-876,1222,269,-397
-538,-1588,-832,1172,221,-461
-531,-1567,-813,1117,193,-526
-548,-1557,-829,1068,176,-595
-548,-1537,-815,1043,134,-656
-555,-1514,-807,1009,85,-705
-552,-1491,-802,983,-7,-725
-502,-1442,-767,973,-119,-726
-420,-1365,-713,954,-212,-736
-372,-1271,-644,925,-288,-752
-380,-1184,-556,875,-336,-773
-378,-1097,-467,796,-378,-804
-357,-1063,-411,691,-425,-864
-355,-945,-381,584,-475,-960
-301,-947,-396,436,-504,-954
-227,-975,-413,304,-597,-902
-211,-926,-390,216,-691,-883
-166,-902,-404,111,-752,-908
-128,-903,-416,20,-795,-933
-107,-909,-471,-72,-838,-940
-19,-938,-527,-155,-872,-939
58,-924,-531,-220,-891,-946
117,-886,-530,-288,-878,-979
137,-869,-527,-366,-872,-1001
48,-874,-537,-456,-860,-1004
-31,-894,-596,-558,-847,-1032
-66,-920,-652,-643,-893,-1043
-105,-922,-681,-726,-987,-1011
-32,-934,-738,-855,-1068,-982
48,-1033,-880,-997,-1103,-980
131,-1174,-1086,-1071,-1096,-1024
352,-1276,-1225,-1065,-1074,-1074
587,-1325,-1269,-1021,-1056,-1038
638,-1364,-1260,-958,-1069,-913
571,-1369,-1207,-885,-1155,-767
411,-1331,-1119,-844,-1295,-608
215,-1309,-1105,-884,-1441,-457
-24,-1385,-1228,-992,-1534,-373
-229,-1546,-1422,-1108,-1533,-420
-127,-1702,-1629,-1187,-1446,-623
164,-1883,-1841,-1189,-1309,-869
427,-2034,-2021,-1079,-1216,-1003
595,-2113,-2061,-873,-1226,-952
571,-2096,-1968,-654,-1305,-752
401,-1967,-1755,-480,-1428,-561
232,-1852,-1560,-411,-1523,-491
137,-1823,-1506,-459,-1543,-534
129,-1899,-1647,-563,-1522,-654
363,-2053,-1867,-645,-1470,-807
637,-2248,-2121,-645,-1422,-897
820,-2396,-2302,-506,-1397,-908
1052,-2410,-2327,-286,-1348,-846
1058,-2397,-2253,-65,-1328,-687
911,-2345,-2121,127,-1325,-542
983,-2207,-1936,259,-1290,-521
1102,-2158,-1847,291,-1193,-550
1088,-2212,-1888,286,-1088,-563
1039,-2267,-1962,308,-1025,-564
926,-2311,-2048,352,-997,-531
828,-2335,-2118,415,-964,-513
801,-2335,-2171,515,-922,-540
836,-2265,-2144,648,-858,-596
1008,-2141,-2103,773,-776,-645
1191,-2026,-2030,861,-634,-647
1351,-1949,-1945,931,-528,-581
1372,-1907,-1881,1003,-482,-466
1378,-1828,-1824,1076,-473,-321
1386,-1750,-1755,1120,-464,-168
1271,-1697,-1686,1129,-388,-76
1147,-1686,-1679,1105,-200,-119
1109,-1714,-1723,1098,-30,-175
1107,-1705,-1730,1138,43,-117
1084,-1617,-1658,1190,80,-3
1046,-1499,-1553,1228,115,81
1039,-1422,-1473,1250,177,115
1042,-1352,-1427,1274,253,140
1053,-1334,-1396,1301,308,221
1100,-1268,-1295,1338,278,381
1053,-1174,-1163,1352,198,588
872,-1137,-1082,1292,172,750
625,-1150,-1021,1182,263,776
501,-1163,-981,1060,399,649
472,-1206,-1009,945,529,482
499,-1239,-1036,869,606,402
559,-1208,-1010,814,647,412
568,-1165,-960,771,667,457
564,-1116,-901,739,683,489
548,-1048,-812,715,676,538
543,-959,-683,666,650,628
506,-895,-565,580,602,734
431,-844,-490,466,511,840
419,-820,-487,306,439,932
337,-876,-534,115,433,1009
201,-948,-584,-48,440,1022
147,-1007,-646,-170,443,976
103,-1041,-715,-262,459,955
55,-1081,-746,-339,498,953
-39,-1117,-749,-392,508,969
-160,-1123,-740,-426,463,998
-186,-1062,-704,-466,367,1028
-176,-1007,-672,-553,287,1046
-180,-993,-695,-696,262,1006
-174,-1027,-824,-861,296,914
-226,-1126,-967,-995,375,788
-233,-1222,-1082,-1096,550,589
-105,-1291,-1161,-1143,736,350
4,-1345,-1185,-1124,820,212
99,-1323,-1149,-1079,785,242
176,-1287,-1084,-1061,693,388
192,-1257,-1051,-1086,609,540
209,-1234,-1022,-1116,568,621
223,-1233,-1047,-1168,561,646
194,-1284,-1158,-1245,537,696
114,-1383,-1299,-1334,551,757
23,-1554,-1478,-1414,669,736
20,-1758,-1700,-1417,759,657
103,-1899,-1845,-1324,780,654
121,-1941,-1855,-1189,766,786
21,-1916,-1755,-1045,724,930
-66,-1839,-1604,-930,723,963
-116,-1771,-1487,-879,767,919
-84,-1732,-1440,-887,797,897
-22,-1714,-1443,-924,778,922
3,-1735,-1504,-981,781,959
-36,-1852,-1670,-1033,858,952
-52,-1997,-1851,-1003,901,921
-21,-2071,-1992,-906,856,945
26,-2154,-2088,-802,818,1041
7,-2238,-2126,-668,818,1146
-100,-2266,-2084,-486,795,1188
-166,-2237,-1978,-316,790,1171
-159,-2171,-1838,-214,803,1154
-149,-2179,-1785,-194,847,1126
-144,-2260,-1825,-182,881,1079
-167,-2346,-1887,-127,916,1025
-235,-2416,-1934,-51,961,966
-302,-2487,-1966,53,1007,891
-343,-2501,-1947,188,1006,831
-444,-2475,-1877,316,969,822
-566,-2456,-1815,400,936,801
-623,-2464,-1790,450,947,688
-609,-2506,-1807,501,1008,499
-605,-2526,-1808,582,1071,323
-589,-2479,-1768,685,1101,197
-533,-2388,-1692,776,1095,116
-483,-2297,-1608,844,1094,69
-551,-2253,-1523,893,1115,3
-599,-2217,-1470,938,1149,-135
-545,-2145,-1408,1011,1081,-242
-487,-2074,-1337,1049,947,-231
-471,-2056,-1317,1031,846,-170
-475,-2033,-1319,1027,786,-179
-483,-2003,-1314,1031,811,-280
-509,-2011,-1351,1032,898,-424
-493,-2025,-1367,1079,951,-558
-399,-1975,-1365,1172,882,-615
-304,-1857,-1265,1261,753,-558
-304,-1784,-1162,1294,649,-453
-384,-1710,-1074,1302,553,-398
-480,-1641,-978,1294,492,-441
-552,-1580,-930,1264,443,-535
-579,-1554,-902,1220,383,-609
-587,-1521,-855,1185,283,-630
-602,-1470,-778,1158,149,-634
-574,-1406,-745,1106,14,-644
-482,-1367,-740,1030,-88,-649
-403,-1352,-736,949,-144,-658
-407,-1358,-753,877,-149,-713
-443,-1347,-748,838,-158,-808
-405,-1307,-709,803,-188,-902
-340,-1270,-676,744,-237,-952
-268,-1253,-678,675,-306,-965
-211,-1232,-661,624,-394,-958
-135,-1193,-635,578,-475,-949
-17,-1136,-589,530,-575,-919
33,-1059,-542,470,-673,-860
21,-983,-485,394,-735,-825
31,-922,-425,294,-753,-861
51,-864,-414,177,-724,-930
145,-785,-393,55,-681,-1009
257,-715,-369,-78,-634,-1075
413,-625,-340,-223,-571,-1165
541,-568,-322,-379,-482,-1236
554,-596,-375,-522,-446,-1243
506,-649,-463,-595,-549,-1195
522,-729,-596,-640,-691,-1079
596,-825,-728,-675,-917,-821
597,-888,-783,-698,-1205,-496
497,-920,-777,-736,-1382,-289
407,-915,-760,-790,-1411,-293
334,-933,-771,-891,-1291,-441
194,-1036,-875,-1023,-1124,-616
145,-1111,-997,-1122,-1045,-759
219,-1125,-1055,-1178,-1083,-805
344,-1181,-1133,-1240,-1117,-761
417,-1336,-1299,-1253,-1167,-709
535,-1496,-1481,-1185,-1251,-665
658,-1575,-1573,-1076,-1347,-566
572,-1615,-1600,-999,-1424,-427
358,-1750,-1703,-997,-1383,-400
226,-1933,-1831,-1002,-1230,-526
205,-2041,-1927,-928,-1114,-709
226,-2091,-1969,-786,-1121,-797
280,-2075,-1949,-649,-1212,-732
444,-2024,-1879,-577,-1292,-624
590,-2019,-1837,-532,-1324,-580
644,-2055,-1850,-486,-1299,-616
687,-2100,-1893,-444,-1242,-661
652,-2157,-1936,-401,-1215,-642
555,-2221,-2002,-353,-1228,-599
469,-2258,-2053,-277,-1250,-590
364,-2286,-2093,-185,-1247,-612
243,-2274,-2118,-70,-1252,-656
270,-2206,-2116,54,-1254,-724
610,-2118,-2083,140,-1220,-809
955,-2059,-2034,215,-1151,-876
1215,-2011,-1994,310,-1073,-899
1375,-1942,-1899,403,-999,-838
1327,-1929,-1843,442,-944,-698
1244,-1976,-1866,454,-907,-574
1305,-2046,-1919,481,-851,-501
1364,-2107,-1976,532,-780,-443
1397,-2158,-2029,614,-702,-401
1380,-2150,-2020,716,-628,-352
1317,-2112,-1977,795,-520,-321
1285,-2103,-1985,848,-391,-339
1279,-2092,-2000,935,-313,-338
1301,-2033,-1950,1039,-244,-302
1255,-1952,-1851,1129,-188,-248
1176,-1867,-1750,1188,-151,-204
1154,-1798,-1690,1187,-78,-182
1118,-1793,-1685,1167,15,-174
1093,-1770,-1677,1176,71,-169
1028,-1727,-1645,1204,104,-130
978,-1692,-1602,1219,127,-71
976,-1640,-1528,1247,116,-4
972,-1581,-1481,1269,102,86
940,-1538,-1460,1282,78,196
868,-1467,-1391,1294,78,282
805,-1391,-1313,1284,160,267
815,-1365,-1276,1263,279,182
843,-1320,-1238,1259,362,138
870,-1227,-1141,1248,388,184
816,-1176,-1063,1196,414,271
763,-1150,-1003,1136,444,312
715,-1151,-980,1083,450,344
678,-1156,-974,1021,443,408
624,-1155,-975,954,453,463
587,-1156,-964,881,514,462
556,-1166,-956,818,594,427
562,-1171,-950,774,662,413
596,-1135,-916,744,671,461
567,-1067,-820,718,639,552
516,-981,-735,662,632,618
441,-926,-648,584,635,655
353,-878,-558,481,666,649
293,-846,-481,366,699,608
209,-824,-406,254,683,607
106,-807,-329,136,597,672
25,-783,-278,7,463,778
2,-785,-279,-130,319,883
33,-821,-310,-257,194,960
34,-842,-369,-354,94,1016
28,-866,-404,-442,36,1051
42,-882,-433,-522,-28,1082
81,-908,-500,-586,-134,1151
183,-953,-640,-633,-296,1315
188,-959,-727,-643,-524,1600
-9,-940,-701,-682,-629,1811
-240,-973,-739,-803,-482,1692
-407,-1066,-765,-947,-191,1285
-415,-1205,-866,-1150,284,737
-198,-1409,-1093,-1317,672,299
-11,-1563,-1258,-1343,709,227
60,-1595,-1301,-1290,583,421
134,-1583,-1285,-1230,493,584
213,-1517,-1211,-1165,479,615
279,-1443,-1159,-1125,519,599
318,-1411,-1145,-1130,538,648
248,-1426,-1136,-1187,502,769
91,-1536,-1219,-1309,499,862
-46,-1752,-1413,-1442,562,846
-88,-1972,-1655,-1504,686,722
-52,-2152,-1842,-1464,804,588
40,-2202,-1900,-1339,851,537
66,-2213,-1907,-1194,886,558
116,-2233,-1892,-1036,913,587
219,-2134,-1798,-859,866,653
192,-2004,-1639,-738,809,777
50,-1956,-1559,-726,826,837
17,-1974,-1597,-761,848,805
29,-2012,-1682,-804,831,808
-3,-2097,-1789,-847,845,837
-8,-2214,-1895,-838,905,794
111,-2285,-1958,-753,957,714
228,-2310,-1960,-624,965,728
205,-2301,-1907,-490,916,843
159,-2273,-1824,-380,861,939
93,-2255,-1766,-302,840,971
-18,-2264,-1767,-251,855,945
-78,-2339,-1818,-223,906,872
-18,-2384,-1871,-176,951,802
-4,-2410,-1897,-112,984,761
-103,-2481,-1919,-39,1028,722
-135,-2520,-1913,69,1042,663
-152,-2532,-1869,182,1008,653
-238,-2597,-1875,285,971,682
-294,-2607,-1858,418,920,673
-345,-2560,-1784,555,895,624
-407,-2522,-1727,652,922,535
-471,-2488,-1669,730,962,401
-536,-2430,-1601,803,994,240
-582,-2358,-1536,871,986,105
-568,-2286,-1468,905,946,34
-553,-2256,-1447,914,900,-15
-549,-2218,-1437,942,858,-89
-484,-2146,-1387,986,823,-185
-402,-2109,-1367,1009,784,-251
-362,-2077,-1340,1027,734,-256
-347,-2023,-1287,1055,695,-268
-360,-1982,-1254,1080,672,-308
-364,-1923,-1209,1119,642,-362
-386,-1842,-1131,1145,612,-408
-429,-1785,-1080,1146,550,-422
-449,-1733,-1029,1132,452,-419
-469,-1664,-950,1103,360,-409
-524,-1633,-922,1035,325,-438
-521,-1619,-925,969,307,-525
-447,-1605,-905,938,283,-621
-355,-1547,-884,919,275,-697
-277,-1530,-892,925,246,-736
-259,-1484,-858,970,168,-728
-188,-1384,-775,1002,78,-716
-118,-1279,-663,1000,-23,-685
-139,-1208,-561,944,-80,-664
-177,-1176,-523,856,-117,-690
-169,-1151,-490,767,-198,-709
-166,-1137,-490,658,-231,-710
-152,-1136,-499,565,-284,-710
-102,-1103,-485,509,-367,-716
-19,-1037,-454,462,-441,-677
-20,-1005,-431,420,-555,-593
-43,-944,-384,391,-717,-490
-72,-822,-292,362,-906,-368
-117,-676,-213,288,-1065,-273
-209,-575,-159,146,-1106,-284
-231,-554,-161,-90,-966,-487
-23,-658,-338,-372,-731,-818
202,-880,-646,-572,-608,-1046
370,-1092,-942,-645,-600,-1060
547,-1219,-1115,-625,-714,-870
589,-1298,-1146,-547,-846,-607
539,-1314,-1109,-460,-949,-387
449,-1263,-975,-371,-1117,-197
281,-1156,-818,-360,-1241,-39
53,-1151,-732,-468,-1243,31
-194,-1213,-752,-613,-1165,-64
-318,-1300,-848,-725,-1075,-290
-186,-1385,-969,-808,-1031,-487
133,-1447,-1099,-894,-1045,-557
366,-1571,-1266,-963,-1049,-509
394,-1742,-1431,-944,-1065,-425
413,-1768,-1459,-814,-1122,-362
402,-1676,-1339,-679,-1179,-277
254,-1632,-1237,-633,-1187,-187
110,-1608,-1164,-620,-1184,-219
14,-1549,-1083,-633,-1191,-310
-77,-1536,-1090,-736,-1214,-361
-97,-1597,-1222,-897,-1276,-392
-86,-1703,-1412,-1035,-1355,-403
70,-1833,-1647,-1107,-1381,-463
401,-1951,-1846,-1089,-1354,-542
595,-2010,-1930,-971,-1334,-519
502,-2017,-1895,-819,-1336,-468
240,-2005,-1820,-711,-1313,-468
119,-1969,-1755,-670,-1275,-547
77,-1979,-1720,-659,-1243,-647
-51,-2043,-1780,-655,-1252,-719
-129,-2134,-1885,-647,-1294,-784
-63,-2208,-1996,-628,-1356,-821
194,-2266,-2061,-615,-1359,-875
649,-2353,-2208,-596,-1242,-989
997,-2487,-2364,-473,-1103,-1068
1180,-2547,-2444,-237,-1005,-1019
1160,-2479,-2341,47,-1008,-813
964,-2293,-2087,254,-1046,-555
781,-2261,-1967,312,-990,-449
723,-2263,-1978,351,-884,-518
749,-2323,-2049,409,-780,-611
835,-2322,-2071,510,-712,-628
962,-2240,-2009,623,-691,-560
1006,-2177,-1928,729,-647,-485
962,-2067,-1817,844,-570,-470
935,-1956,-1732,916,-449,-519
919,-1896,-1694,941,-329,-528
955,-1874,-1697,950,-266,-490
1038,-1861,-1710,968,-230,-435
1072,-1839,-1710,998,-194,-359
1011,-1826,-1708,1033,-152,-288
953,-1804,-1703,1072,-89,-249
913,-1779,-1678,1126,-32,-210
851,-1725,-1633,1179,10,-158
881,-1659,-1558,1213,87,-155
943,-1626,-1538,1221,177,-157
922,-1632,-1528,1227,241,-90
857,-1602,-1461,1239,285,-3
763,-1566,-1398,1241,314,67
636,-1565,-1361,1227,322,133
514,-1559,-1327,1217,310,192
395,-1516,-1269,1215,290,224
292,-1482,-1186,1206,293,213
237,-1456,-1109,1181,320,165
214,-1419,-1033,1157,347,102
237,-1356,-950,1124,355,57
314,-1314,-897,1076,372,43
351,-1291,-859,1028,355,83
366,-1251,-811,993,314,145
430,-1192,-757,952,293,188
538,-1122,-685,900,297,214
633,-1097,-655,825,329,235
631,-1105,-671,745,365,259
626,-1122,-694,665,417,268
647,-1148,-708,572,514,258
587,-1184,-709,496,612,236
520,-1188,-712,440,661,224
497,-1147,-661,390,666,263
441,-1113,-604,304,658,344
344,-1121,-601,206,644,413
301,-1198,-669,124,606,486
391,-1253,-719,77,517,615
345,-1252,-702,59,367,820
191,-1206,-607,10,302,925
74,-1200,-538,-115,433,789
48,-1259,-572,-260,636,519
178,-1344,-661,-368,775,321
302,-1408,-744,-428,754,362
280,-1407,-735,-441,615,573
221,-1405,-689,-455,516,730
151,-1404,-670,-472,465,792
28,-1381,-627,-483,405,831
-66,-1352,-583,-529,380,855
-133,-1354,-578,-603,382,823
-227,-1358,-595,-669,422,732
-314,-1355,-631,-732,494,604
-253,-1327,-651,-791,558,468
-138,-1318,-693,-844,585,382
-76,-1339,-753,-885,551,381
5,-1329,-797,-912,471,431
36,-1331,-847,-937,369,524
35,-1345,-902,-955,283,620
4,-1323,-917,-952,208,688
-122,-1309,-901,-971,208,688
-193,-1310,-904,-1025,290,569
-82,-1320,-922,-1093,397,399
43,-1357,-980,-1165,470,294
95,-1422,-1077,-1225,464,320
94,-1488,-1180,-1272,397,435
126,-1550,-1302,-1311,333,552
197,-1635,-1441,-1319,319,611
253,-1689,-1524,-1282,336,623
302,-1718,-1553,-1241,390,626
310,-1788,-1564,-1214,458,644
291,-1861,-1587,-1193,526,646
302,-1901,-1597,-1163,579,638
316,-1921,-1592,-1143,624,653
266,-1969,-1623,-1148,690,686
236,-2043,-1686,-1139,696,739
232,-2090,-1746,-1100,633,831
207,-2154,-1850,-1068,581,946
170,-2314,-2062,-1029,585,1007
175,-2471,-2274,-934,609,1008
215,-2581,-2402,-791,676,987
205,-2669,-2458,-615,780,939
157,-2703,-2458,-408,874,875
98,-2637,-2330,-204,912,870
-11,-2524,-2113,-56,905,921
-127,-2426,-1951,14,913,917
-150,-2409,-1910,29,926,854
-39,-2429,-1919,55,926,805
58,-2418,-1934,114,930,790
29,-2377,-1887,204,920,796
-33,-2316,-1815,272,933,766
-68,-2349,-1818,299,993,700
-84,-2376,-1817,372,1019,643
-80,-2323,-1736,473,1036,593
-154,-2321,-1671,544,1067,563
-255,-2302,-1613,622,1040,552
-293,-2247,-1537,683,1003,526
-331,-2247,-1517,699,1003,505
-409,-2275,-1529,733,989,478
-452,-2269,-1501,797,961,404
-525,-2221,-1436,861,963,314
-679,-2199,-1362,904,982,208
-791,-2167,-1304,946,950,85
-816,-2117,-1249,987,847,-1
-800,-2074,-1195,1009,723,-30
-766,-2019,-1146,1018,638,-85
-752,-1992,-1110,1025,601,-200
-780,-1980,-1106,1041,565,-319
-764,-1946,-1086,1064,501,-389
-748,-1886,-1014,1089,406,-407
-766,-1811,-918,1107,308,-421
-778,-1757,-862,1118,197,-462
-756,-1735,-856,1137,56,-482
-679,-1668,-826,1160,-95,-465
-634,-1589,-779,1162,-211,-443
-624,-1558,-763,1127,-245,-490
-628,-1556,-797,1076,-204,-639
-605,-1591,-878,1033,-154,-804
-515,-1573,-909,1019,-180,-871
-475,-1528,-866,993,-231,-853
-489,-1513,-851,953,-271,-854
-435,-1441,-810,945,-353,-892
-351,-1325,-730,929,-465,-872
-332,-1222,-627,868,-551,-810
-304,-1138,-541,767,-571,-829
-169,-1052,-483,661,-555,-924
-48,-986,-426,559,-558,-971
30,-941,-378,440,-617,-918
136,-875,-324,309,-718,-820
143,-854,-306,169,-797,-737
75,-877,-343,36,-813,-728
80,-911,-422,-45,-826,-774
115,-970,-516,-79,-848,-779
186,-977,-540,-74,-885,-748
262,-885,-448,-50,-916,-723
