ax,ay,az,gx,gy,gz
997,-1066,-229,-1032,-366,-534
1094,-1123,-314,-1124,-112,-586
1181,-1196,-448,-1194,11,-543
1270,-1231,-554,-1221,-17,-428
1282,-1293,-576,-1246,-122,-247
1234,-1326,-513,-1292,-165,-83
1179,-1353,-527,-1400,-154,48
1110,-1404,-583,-1520,-239,185
1021,-1523,-683,-1618,-325,258
1018,-1573,-794,-1666,-255,210
1091,-1636,-956,-1704,-45,109
1131,-1706,-1029,-1685,74,95
1181,-1733,-1008,-1658,24,155
1254,-1823,-1004,-1679,8,224
1266,-1891,-1005,-1698,69,296
1254,-2001,-1065,-1734,98,395
1289,-2047,-1051,-1740,83,461
1330,-2082,-1183,-1801,164,532
1296,-2197,-1419,-1847,266,637
1332,-2247,-1597,-1819,283,696
1361,-2357,-1735,-1771,332,755
1283,-2503,-1749,-1662,342,841
1210,-2590,-1662,-1529,332,891
1188,-2646,-1633,-1448,424,885
1139,-2753,-1667,-1396,642,848
1023,-2817,-1714,-1338,856,784
983,-2919,-1874,-1319,1044,728
981,-3049,-2112,-1240,1145,742
910,-3120,-2245,-1068,1118,817
754,-3172,-2248,-887,1130,854
635,-3246,-2227,-722,1191,810
559,-3287,-2193,-555,1216,729
521,-3341,-2146,-396,1288,619
528,-3406,-2045,-205,1353,516
519,-3438,-1874,-7,1405,431
498,-3454,-1776,115,1542,334
451,-3480,-1782,197,1679,250
440,-3485,-1807,301,1748,176
416,-3453,-1840,419,1787,128
330,-3421,-1869,552,1772,92
288,-3366,-1884,710,1754,34
286,-3259,-1891,883,1701,-5
250,-3115,-1803,1082,1665,-35
275,-2976,-1687,1250,1715,-108
365,-2796,-1545,1376,1789,-179
382,-2653,-1435,1444,1896,-216
372,-2507,-1379,1487,1985,-229
404,-2326,-1203,1545,1971,-211
453,-2151,-994,1550,1911,-148
495,-2012,-902,1496,1851,-46
424,-1911,-942,1449,1754,106
359,-1795,-929,1475,1592,240
325,-1683,-801,1519,1503,284
279,-1598,-737,1517,1561,271
287,-1518,-670,1502,1660,216
277,-1449,-588,1483,1701,205
337,-1345,-472,1454,1662,230
374,-1242,-327,1392,1569,289
306,-1173,-278,1266,1539,400
261,-1130,-312,1141,1531,509
219,-1124,-342,1052,1432,591
235,-1087,-428,983,1355,635
381,-986,-419,966,1336,665
438,-904,-280,953,1397,748
302,-838,-200,871,1484,931
196,-759,-139,765,1379,1132
153,-668,-151,655,1127,1324
-77,-597,-220,560,966,1502
-329,-605,-218,492,1001,1550
-385,-592,-171,455,906,1524
-259,-545,-82,409,714,1501
-182,-520,24,315,860,1437
-340,-527,-11,168,1195,1431
-448,-561,-51,74,1176,1473
-424,-552,-54,21,928,1499
-445,-539,-15,-41,887,1510
-445,-553,-15,-130,906,1522
-421,-557,-31,-205,744,1614
-471,-562,1,-254,541,1765
-658,-570,83,-303,444,1881
-878,-618,152,-393,428,1883
-1001,-704,149,-516,565,1761
-1106,-799,62,-637,719,1623
-1255,-909,20,-718,795,1480
-1367,-973,50,-777,887,1291
-1394,-1039,79,-887,967,1098
-1372,-1101,23,-1033,886,987
-1369,-1177,-102,-1160,698,957
-1367,-1288,-228,-1227,535,962
-1402,-1392,-220,-1218,324,974
-1486,-1472,-108,-1204,179,932
-1602,-1551,-71,-1261,232,814
-1694,-1634,-160,-1354,319,667
-1677,-1711,-267,-1425,316,539
-1668,-1823,-356,-1483,224,507
-1739,-1985,-429,-1503,75,530
-1806,-2078,-468,-1494,-121,513
-1838,-2171,-518,-1492,-240,457
-1842,-2244,-529,-1475,-289,390
-1914,-2304,-536,-1463,-327,330
-1997,-2395,-596,-1467,-323,239
-1989,-2465,-652,-1453,-352,127
-1961,-2552,-708,-1421,-447,40
-1941,-2692,-765,-1376,-561,-28
-1881,-2752,-773,-1309,-732,-101
-1836,-2856,-786,-1251,-819,-180
-1853,-2941,-826,-1194,-882,-266
-1811,-2971,-899,-1111,-949,-363
-1797,-3003,-890,-1003,-1000,-421
-1802,-3044,-833,-927,-1167,-458
-1777,-3136,-908,-899,-1325,-520
-1654,-3254,-1056,-842,-1423,-642
-1508,-3374,-1182,-721,-1435,-814
-1385,-3465,-1249,-564,-1369,-995
-1208,-3523,-1269,-398,-1302,-1170
-937,-3548,-1313,-243,-1278,-1268
-715,-3554,-1332,-83,-1410,-1218
-632,-3552,-1345,83,-1579,-1104
-643,-3546,-1283,252,-1676,-1055
-544,-3495,-1303,371,-1657,-1088
-423,-3453,-1325,482,-1657,-1094
-391,-3422,-1335,593,-1664,-1067
-364,-3374,-1348,713,-1572,-1078
-380,-3301,-1363,843,-1472,-1094
-402,-3249,-1356,974,-1453,-1105
-320,-3145,-1346,1109,-1445,-1137
-288,-3000,-1290,1237,-1414,-1114
-371,-2816,-1187,1347,-1387,-1045
-447,-2640,-1059,1426,-1445,-994
-472,-2459,-922,1459,-1526,-972
-528,-2300,-833,1443,-1487,-979
-643,-2156,-775,1394,-1358,-1027
-653,-2070,-746,1318,-1238,-1156
-506,-1991,-806,1249,-1101,-1305
-372,-1930,-956,1231,-1032,-1353
-262,-1852,-1024,1299,-1061,-1322
-152,-1744,-920,1399,-1183,-1251
-90,-1633,-739,1436,-1324,-1142
-27,-1537,-549,1402,-1402,-1043
12,-1448,-437,1310,-1371,-958
-53,-1359,-349,1191,-1360,-861
-140,-1252,-261,1066,-1346,-815
-232,-1155,-172,918,-1322,-845
-276,-1071,-166,736,-1185,-965
-235,-1006,-331,563,-924,-1116
-179,-1016,-614,487,-713,-1200
-160,-999,-709,586,-789,-1181
-110,-886,-481,738,-1116,-1124
14,-790,-209,730,-1270,-1119
137,-744,-102,591,-1151,-1143
166,-729,-79,436,-1060,-1125
199,-694,-76,290,-1061,-1114
275,-649,-83,141,-1022,-1133
313,-671,-198,-5,-911,-1158
330,-717,-324,-77,-790,-1176
404,-707,-361,-72,-738,-1173
462,-691,-320,-57,-778,-1137
520,-691,-303,-91,-795,-1098
612,-677,-263,-139,-805,-1067
704,-625,-248,-207,-827,-1020
751,-623,-301,-296,-793,-935
748,-655,-272,-343,-765,-851
779,-618,-178,-392,-801,-796
816,-610,-68,-498,-752,-738
821,-667,-82,-626,-643,-697
837,-707,-125,-717,-601,-662
879,-753,-139,-786,-609,-621
891,-795,-152,-857,-615,-568
938,-859,-214,-930,-578,-535
997,-892,-221,-978,-550,-496
964,-967,-166,-1033,-601,-433
911,-1024,-204,-1119,-568,-416
894,-1051,-227,-1202,-514,-415
916,-1105,-237,-1319,-526,-418
1013,-1188,-365,-1466,-445,-434
1139,-1267,-530,-1563,-346,-431
1207,-1329,-739,-1617,-308,-378
1200,-1457,-878,-1619,-277,-293
1272,-1513,-890,-1586,-334,-238
1389,-1512,-895,-1617,-367,-187
1507,-1617,-954,-1688,-303,-97
1567,-1670,-954,-1715,-299,28
1554,-1683,-1032,-1778,-297,167
1475,-1806,-1141,-1838,-244,296
1432,-1873,-1179,-1819,-263,369
1479,-1877,-1238,-1827,-211,383
1547,-2061,-1481,-1858,-3,402
1547,-2125,-1552,-1741,69,469
1530,-2167,-1484,-1642,29,525
1524,-2313,-1456,-1632,108,524
1564,-2382,-1542,-1633,278,479
1593,-2517,-1661,-1609,444,475
1594,-2617,-1664,-1506,492,529
1560,-2714,-1654,-1419,575,558
1522,-2854,-1754,-1359,720,545
1531,-2965,-1871,-1271,784,535
1525,-3045,-1937,-1156,779,542
1487,-3128,-2009,-1040,840,537
1471,-3188,-2042,-905,933,502
1417,-3256,-1995,-753,1010,455
1312,-3328,-1903,-590,1077,409
1344,-3355,-1847,-472,1205,318
1365,-3404,-1901,-393,1403,249
1322,-3417,-1953,-253,1495,259
1303,-3387,-1969,-88,1549,279
1230,-3374,-1960,83,1554,342
1125,-3281,-1848,262,1471,409
998,-3205,-1805,388,1464,418
799,-3114,-1759,523,1530,382
680,-2968,-1664,654,1579,290
643,-2863,-1623,743,1660,169
610,-2752,-1583,834,1842,47
597,-2619,-1489,915,1960,-15
568,-2505,-1405,959,1898,6
557,-2428,-1376,975,1775,55
555,-2357,-1433,1024,1613,109
475,-2285,-1537,1117,1505,149
372,-2167,-1474,1263,1524,124
343,-2077,-1360,1376,1585,28
353,-2014,-1356,1417,1677,-41
412,-1945,-1335,1473,1618,-50
422,-1838,-1271,1550,1411,21
457,-1698,-1126,1635,1146,132
666,-1504,-872,1687,880,259
970,-1319,-575,1652,754,408
1033,-1234,-496,1501,946,592
706,-1158,-566,1385,1094,859
410,-1055,-415,1355,1011,985
422,-940,-346,1239,1122,921
492,-860,-379,1091,1293,933
440,-824,-423,990,1337,1036
370,-808,-552,945,1266,1157
398,-746,-519,1006,1112,1288
382,-629,-275,1090,1046,1391
270,-506,-97,1052,1116,1445
148,-458,-11,946,1215,1430
72,-402,26,843,1353,1380
108,-320,148,743,1328,1375
289,-256,210,575,1217,1413
345,-249,135,400,1197,1550
259,-279,84,292,1159,1738
182,-274,83,223,1003,1893
26,-296,131,158,845,2015
-136,-353,175,60,798,2039
-148,-397,172,-58,922,1949
-151,-451,113,-172,1124,1884
-212,-516,84,-240,1187,1888
-293,-547,154,-276,1112,1915
-400,-573,224,-360,1049,1929
-528,-614,227,-486,1024,1909
-691,-652,187,-616,1070,1826
-847,-715,110,-744,1151,1702
-970,-783,33,-852,1206,1562
-966,-843,-13,-945,1227,1430
-929,-902,-74,-1036,1179,1396
-1029,-974,-91,-1115,958,1504
-1174,-1020,-81,-1199,659,1615
-1375,-1133,-100,-1291,552,1613
-1600,-1224,-201,-1360,551,1509
-1756,-1243,-260,-1413,541,1362
-1852,-1309,-352,-1479,580,1208
-1961,-1388,-463,-1537,551,1113
-2123,-1522,-535,-1558,432,1062
-2242,-1664,-489,-1531,217,987
-2307,-1733,-409,-1531,57,857
-2281,-1795,-436,-1595,37,705
-2283,-1920,-520,-1656,75,566
-2365,-2081,-626,-1686,82,482
-2404,-2222,-599,-1660,-151,426
-2392,-2335,-636,-1643,-351,326
-2436,-2490,-781,-1643,-356,222
-2423,-2583,-854,-1578,-478,114
-2375,-2676,-884,-1491,-690,37
-2384,-2800,-876,-1400,-894,-22
-2386,-2947,-864,-1322,-992,-162
-2201,-3060,-941,-1262,-1008,-382
-2029,-3170,-1023,-1170,-978,-561
-1922,-3237,-1077,-1040,-1007,-653
-1811,-3309,-1083,-885,-1110,-722
-1702,-3404,-995,-739,-1295,-758
-1527,-3493,-959,-649,-1450,-866
-1395,-3575,-1131,-587,-1368,-981
-1292,-3635,-1249,-448,-1335,-1054
-1180,-3669,-1264,-265,-1453,-1108
-1148,-3695,-1181,-94,-1531,-1143
-1038,-3741,-1166,0,-1585,-1226
-819,-3793,-1289,70,-1617,-1331
-639,-3819,-1435,186,-1544,-1384
-544,-3778,-1516,355,-1581,-1329
-519,-3663,-1485,541,-1754,-1242
-491,-3556,-1447,664,-1777,-1243
-387,-3437,-1451,754,-1735,-1279
-287,-3303,-1449,852,-1760,-1271
-163,-3171,-1501,951,-1761,-1233
-115,-3004,-1430,1093,-1755,-1142
-193,-2842,-1248,1214,-1749,-1052
-230,-2696,-1168,1254,-1627,-1034
-187,-2594,-1208,1294,-1551,-1027
-194,-2478,-1218,1379,-1505,-986
-280,-2336,-1194,1454,-1433,-930
-307,-2194,-1071,1509,-1494,-914
-332,-2030,-853,1524,-1482,-925
-364,-1884,-678,1440,-1396,-911
-395,-1765,-601,1325,-1506,-842
-459,-1619,-505,1222,-1709,-766
-589,-1507,-473,1081,-1661,-799
-596,-1457,-627,942,-1441,-946
-421,-1416,-694,901,-1261,-1086
-306,-1350,-657,907,-1272,-1099
-270,-1285,-569,890,-1396,-1049
-200,-1208,-535,829,-1448,-1024
-183,-1141,-507,756,-1413,-1007
-207,-1117,-519,698,-1237,-1032
-175,-1042,-500,658,-1078,-1078
-154,-946,-435,597,-1106,-1074
-146,-888,-392,505,-1159,-1068
-108,-839,-417,416,-1142,-1081
-81,-800,-348,377,-1177,-1078
-91,-731,-263,331,-1176,-1082
-82,-705,-281,247,-1139,-1109
1,-703,-300,185,-1154,-1164
193,-705,-311,126,-1108,-1237
358,-756,-377,77,-938,-1278
428,-781,-414,68,-828,-1237
486,-757,-364,74,-877,-1147
592,-750,-258,39,-989,-1053
731,-752,-215,-48,-956,-976
776,-762,-191,-133,-932,-869
742,-762,-226,-219,-935,-745
697,-760,-249,-284,-972,-637
642,-733,-206,-329,-1038,-533
587,-715,-144,-388,-1073,-466
519,-721,-121,-468,-1047,-447
451,-725,-98,-544,-1009,-439
564,-726,-92,-628,-1007,-462
677,-723,-65,-726,-898,-498
663,-765,-98,-852,-744,-496
752,-841,-200,-974,-704,-498
885,-911,-237,-1052,-747,-460
930,-961,-210,-1131,-734,-407
965,-1028,-339,-1254,-658,-380
1025,-1134,-502,-1339,-593,-350
1103,-1234,-607,-1361,-611,-301
1255,-1283,-686,-1381,-598,-248
1292,-1352,-719,-1404,-535,-147
1242,-1437,-780,-1440,-499,-31
1260,-1487,-790,-1475,-455,33
1320,-1538,-812,-1555,-426,105
1349,-1652,-937,-1647,-377,181
1437,-1713,-1078,-1690,-247,225
1481,-1752,-1157,-1704,-51,283
1472,-1829,-1283,-1737,34,379
1495,-1921,-1359,-1731,18,474
1536,-2021,-1323,-1707,99,532
1549,-2131,-1337,-1715,314,586
1543,-2214,-1398,-1723,405,680
1512,-2272,-1504,-1729,419,787
1400,-2356,-1648,-1715,505,896
1265,-2471,-1762,-1655,591,979
1176,-2544,-1806,-1542,649,1012
1077,-2587,-1841,-1423,730,1014
901,-2639,-1798,-1305,767,1001
801,-2708,-1754,-1220,876,884
860,-2810,-1777,-1149,1124,685
929,-2860,-1736,-1057,1300,534
1025,-2926,-1748,-993,1366,479
1058,-2973,-1722,-910,1381,479
1028,-3017,-1663,-833,1374,485
1032,-3090,-1692,-783,1482,467
973,-3149,-1745,-727,1576,461
863,-3241,-1947,-657,1617,444
742,-3334,-2083,-499,1697,393
614,-3353,-2031,-273,1702,328
534,-3357,-1920,-98,1708,245
514,-3366,-1853,30,1690,171
455,-3381,-1826,156,1690,101
380,-3351,-1786,296,1737,18
346,-3311,-1739,426,1738,-73
300,-3263,-1728,545,1757,-163
289,-3179,-1699,669,1818,-275
329,-3088,-1704,782,1838,-359
386,-2998,-1731,908,1823,-387
464,-2850,-1667,1065,1825,-398
531,-2695,-1563,1189,1847,-389
572,-2544,-1460,1278,1910,-361
639,-2370,-1308,1344,1892,-302
716,-2213,-1197,1360,1863,-208
735,-2054,-1130,1372,1789,-80
670,-1904,-1016,1383,1671,50
632,-1789,-946,1367,1688,82
595,-1671,-960,1349,1774,92
586,-1588,-981,1369,1745,161
629,-1495,-943,1422,1650,271
670,-1379,-787,1466,1561,403
659,-1278,-621,1453,1506,522
606,-1201,-541,1373,1421,644
549,-1152,-486,1283,1366,698
521,-1065,-434,1195,1454,693
554,-988,-335,1099,1502,718
579,-926,-314,971,1411,812
617,-846,-349,879,1298,947
666,-797,-321,832,1240,1071
550,-743,-303,798,1193,1216
391,-701,-235,765,1108,1293
355,-643,-169,710,1135,1261
359,-596,-93,625,1281,1230
374,-556,-69,533,1259,1294
378,-528,-129,467,1085,1440
439,-494,-100,431,918,1617
351,-447,21,377,783,1805
85,-434,41,268,710,1917
-176,-499,-39,161,805,1831
-262,-576,-106,95,1085,1615
-179,-695,-206,49,1238,1439
-116,-777,-223,59,1261,1383
-65,-806,-127,65,1171,1418
-14,-812,-41,8,1012,1517
-106,-841,-30,-82,865,1638
-251,-905,-30,-176,842,1668
-380,-934,-28,-256,947,1635
-469,-944,5,-334,897,1642
-645,-975,2,-419,842,1651
-933,-997,-8,-504,906,1596
-1076,-1005,-27,-604,980,1453
-1114,-1028,-113,-717,960,1336
-1168,-1077,-145,-797,894,1274
-1257,-1119,-79,-864,898,1187
-1281,-1192,-66,-963,866,1113
-1310,-1254,-59,-1050,714,1075
-1409,-1316,-131,-1147,743,994
-1507,-1414,-249,-1237,813,876
-1579,-1500,-301,-1292,721,783
-1614,-1588,-328,-1350,597,694
-1648,-1701,-406,-1409,542,598
-1698,-1833,-499,-1440,479,527
-1761,-1939,-462,-1431,321,482
-1814,-2008,-452,-1461,196,400
-1862,-2093,-638,-1528,175,286
-1891,-2181,-806,-1533,86,191
-1921,-2280,-850,-1477,-73,93
-1954,-2368,-793,-1408,-177,-18
-1910,-2375,-678,-1356,-276,-142
-1826,-2423,-598,-1358,-437,-229
-1734,-2449,-607,-1384,-575,-268
-1680,-2458,-739,-1427,-703,-291
-1644,-2608,-946,-1424,-826,-309
-1512,-2724,-1016,-1328,-921,-382
-1384,-2800,-1047,-1242,-969,-446
-1302,-2883,-1047,-1142,-1032,-448
-1228,-2926,-1053,-1039,-1119,-448
-1255,-3033,-1122,-938,-1183,-426
-1333,-3124,-1120,-785,-1304,-443
-1307,-3115,-1051,-642,-1416,-546
-1237,-3115,-1002,-551,-1431,-676
-1120,-3122,-1058,-490,-1462,-801
-955,-3127,-1176,-420,-1478,-895
-890,-3130,-1168,-289,-1552,-905
-799,-3062,-1037,-166,-1698,-913
-694,-3019,-986,-110,-1727,-941
-626,-3061,-1084,-83,-1721,-975
-483,-3142,-1221,2,-1708,-1028
-374,-3229,-1284,168,-1724,-1047
-294,-3247,-1206,347,-1784,-1062
-247,-3262,-1124,466,-1679,-1137
-98,-3317,-1200,527,-1466,-1253
122,-3337,-1327,632,-1369,-1289
233,-3299,-1316,791,-1441,-1177
204,-3229,-1210,924,-1516,-1054
224,-3114,-1142,1003,-1501,-1000
223,-3017,-1144,1066,-1486,-937
221,-2934,-1127,1143,-1498,-876
253,-2800,-1015,1224,-1419,-865
243,-2700,-972,1250,-1287,-851
172,-2605,-953,1284,-1223,-810
110,-2500,-876,1310,-1141,-809
85,-2406,-803,1300,-1040,-823
109,-2321,-748,1266,-982,-822
103,-2264,-775,1218,-954,-768
76,-2187,-837,1209,-925,-695
43,-2083,-789,1242,-971,-636
-55,-2011,-693,1239,-1016,-607
-158,-1924,-628,1219,-921,-652
-224,-1831,-585,1200,-812,-728
-259,-1746,-581,1181,-724,-801
-253,-1672,-565,1173,-597,-884
-197,-1571,-472,1170,-529,-941
-156,-1465,-407,1133,-552,-917
-122,-1400,-356,1060,-605,-850
-55,-1344,-280,1000,-692,-794
-18,-1266,-194,927,-742,-719
-67,-1197,-88,834,-761,-635
-148,-1149,-63,711,-827,-585
-203,-1094,-66,607,-801,-612
-232,-1050,-68,524,-694,-696
-268,-1027,-131,456,-697,-745
-310,-998,-167,432,-714,-797
-329,-966,-162,419,-741,-878
-292,-951,-126,400,-753,-973
-136,-899,18,376,-744,-1071
38,-893,64,266,-714,-1115
109,-945,16,140,-666,-1102
169,-968,-49,50,-782,-1034
271,-982,-99,-9,-916,-960
379,-989,-203,-77,-916,-918
372,-1013,-290,-112,-859,-857
326,-1016,-278,-105,-890,-816
358,-994,-250,-130,-882,-846
389,-952,-300,-192,-798,-875
454,-938,-328,-244,-788,-892
537,-947,-356,-285,-766,-898
609,-938,-298,-305,-781,-849
669,-913,-248,-350,-890,-763
633,-919,-205,-406,-920,-674
585,-923,-172,-474,-968,-630
657,-923,-152,-561,-1022,-635
728,-949,-148,-661,-980,-648
722,-970,-201,-762,-913,-637
723,-1030,-299,-845,-896,-623
787,-1092,-370,-892,-902,-632
859,-1099,-439,-928,-867,-635
925,-1106,-478,-965,-780,-628
1037,-1133,-507,-1027,-752,-607
1094,-1147,-515,-1078,-710,-552
1203,-1198,-528,-1139,-683,-480
1285,-1237,-489,-1199,-683,-390
1372,-1270,-512,-1288,-682,-288
1416,-1300,-541,-1374,-610,-176
1476,-1376,-707,-1481,-553,-66
1559,-1450,-895,-1537,-475,49
1657,-1514,-908,-1537,-502,249
1597,-1577,-949,-1548,-609,536
1449,-1632,-1026,-1555,-704,800
1210,-1688,-1038,-1545,-778,999
957,-1784,-1024,-1519,-804,1074
834,-1827,-985,-1493,-618,929
818,-1910,-1054,-1539,-145,641
867,-1987,-1217,-1584,244,391
1076,-2041,-1307,-1568,348,232
1343,-2112,-1342,-1538,436,158
1577,-2248,-1371,-1513,442,192
1769,-2350,-1380,-1447,379,290
1852,-2463,-1353,-1385,404,408
1840,-2608,-1349,-1351,432,538
1791,-2697,-1400,-1339,505,605
1737,-2849,-1608,-1361,705,593
1707,-3017,-1814,-1320,875,586
1681,-3147,-1963,-1211,932,611
1564,-3231,-2127,-1082,928,679
1387,-3290,-2236,-899,954,715
1275,-3340,-2227,-667,1046,669
1172,-3350,-2100,-427,1201,585
1096,-3352,-1933,-242,1323,496
1030,-3353,-1808,-107,1368,421
1006,-3292,-1769,-29,1452,344
940,-3265,-1841,37,1548,282
825,-3204,-1872,153,1586,223
822,-3128,-1848,285,1627,126
842,-3059,-1847,418,1737,53
815,-2930,-1721,579,1777,32
789,-2789,-1561,700,1733,39
753,-2662,-1455,786,1745,50
719,-2509,-1306,857,1725,68
724,-2381,-1184,872,1675,96
651,-2293,-1131,870,1682,112
509,-2187,-1084,878,1787,63
477,-2081,-1041,867,1937,-40
525,-2032,-1125,846,2046,-93
571,-1980,-1174,887,2030,-59
613,-1878,-1050,963,1890,42
635,-1795,-904,983,1736,184
635,-1750,-865,961,1600,318
538,-1715,-906,961,1499,409
383,-1688,-903,992,1555,366
334,-1630,-814,1019,1786,186
480,-1561,-748,991,1880,59
635,-1497,-644,955,1855,77
721,-1450,-573,879,1781,184
822,-1381,-511,793,1651,351
901,-1312,-416,706,1431,590
967,-1235,-431,614,1145,886
881,-1176,-519,563,855,1178
602,-1163,-578,579,801,1297
436,-1097,-592,624,1058,1201
506,-1027,-534,652,1295,1067
663,-970,-438,636,1387,1066
737,-893,-338,594,1412,1225
753,-805,-241,508,1249,1492
689,-760,-238,391,937,1816
481,-734,-238,312,673,2062
205,-737,-326,268,697,2095
-54,-750,-388,272,1028,1921
-18,-756,-372,274,1252,1693
149,-726,-267,282,1180,1667
200,-689,-188,237,1003,1834
143,-665,-160,172,829,2054
-38,-633,-114,118,591,2253
-282,-633,-101,45,522,2298
-421,-649,-122,-23,786,2157
-563,-691,-117,-92,986,2010
-641,-740,-219,-155,991,1912
-722,-780,-187,-160,882,1891
-851,-795,-65,-189,801,1869
-992,-847,-57,-299,800,1801
-1066,-920,-165,-405,745,1716
-1154,-975,-222,-450,647,1654
-1262,-1003,-221,-468,613,1554
-1300,-1000,-194,-498,647,1398
-1352,-1029,-130,-559,700,1277
-1472,-1105,-144,-654,684,1225
-1641,-1176,-97,-726,633,1195
-1750,-1278,-2,-804,542,1121
-1757,-1313,-48,-941,443,1030
-1822,-1404,-245,-1076,366,986
-1942,-1584,-371,-1106,303,942
-1937,-1691,-329,-1057,229,834
-1928,-1780,-244,-1059,111,755
-1964,-1884,-262,-1118,41,692
-1949,-1970,-336,-1171,2,615
-1986,-2057,-344,-1177,-73,576
-2072,-2107,-347,-1192,-200,533
-2067,-2175,-394,-1219,-275,432
-1982,-2211,-408,-1214,-356,327
-1976,-2341,-431,-1204,-440,269
-1939,-2369,-398,-1164,-588,208
-1836,-2372,-400,-1152,-697,138
-1837,-2438,-456,-1159,-756,96
-1813,-2477,-527,-1163,-835,29
-1830,-2590,-580,-1169,-961,-10
-1806,-2723,-650,-1156,-1054,-106
-1634,-2821,-831,-1143,-1005,-264
-1533,-3011,-999,-1072,-1008,-333
-1392,-3116,-1018,-930,-1145,-385
-1326,-3187,-1003,-794,-1231,-399
-1304,-3271,-962,-657,-1346,-390
-1231,-3305,-887,-547,-1495,-426
-1263,-3386,-849,-468,-1526,-485
-1231,-3465,-840,-402,-1546,-605
-1102,-3487,-898,-351,-1493,-764
-1154,-3528,-967,-276,-1511,-843
-1129,-3536,-996,-176,-1625,-970
-964,-3492,-1065,-78,-1581,-1172
-893,-3467,-1184,35,-1489,-1295
-825,-3461,-1260,193,-1518,-1369
-614,-3418,-1319,334,-1566,-1483
-378,-3378,-1408,455,-1506,-1569
-180,-3364,-1501,602,-1440,-1562
-56,-3268,-1493,810,-1424,-1481
-91,-3110,-1377,1011,-1387,-1360
-178,-2959,-1246,1141,-1400,-1242
-266,-2775,-1082,1242,-1472,-1136
-368,-2590,-882,1291,-1510,-1066
-401,-2395,-717,1267,-1523,-1046
-439,-2241,-586,1183,-1559,-1042
-547,-2131,-581,1074,-1436,-1111
-595,-2014,-677,993,-1112,-1292
-495,-1927,-824,957,-828,-1488
-304,-1854,-940,987,-719,-1578
-124,-1764,-880,1067,-718,-1558
-29,-1679,-787,1113,-770,-1424
25,-1570,-657,1139,-937,-1236
42,-1461,-451,1116,-1163,-1077
-75,-1364,-293,1015,-1246,-970
-210,-1290,-193,873,-1151,-985
-251,-1229,-163,705,-956,-1095
-228,-1195,-240,548,-805,-1200
-157,-1192,-369,474,-608,-1275
-27,-1157,-448,468,-466,-1308
79,-1124,-487,483,-523,-1250
87,-1089,-478,511,-692,-1103
135,-1046,-395,534,-892,-973
154,-1020,-287,535,-971,-880
152,-955,-185,506,-1039,-807
59,-927,-81,436,-1076,-793
-75,-938,-33,328,-827,-927
-42,-928,-22,217,-497,-1148
97,-904,-52,99,-396,-1275
211,-898,-173,-20,-466,-1233
337,-920,-268,-67,-661,-1110
397,-869,-253,-74,-875,-970
443,-828,-232,-126,-1042,-856
540,-831,-234,-183,-1067,-765
641,-792,-238,-234,-1054,-668
671,-772,-289,-296,-1082,-560
552,-768,-274,-335,-1077,-482
477,-780,-218,-376,-969,-506
524,-773,-131,-433,-887,-553
571,-754,-139,-533,-912,-533
541,-757,-143,-607,-970,-458
472,-725,-52,-662,-1079,-374
424,-700,-12,-768,-1209,-326
514,-724,-47,-900,-1234,-373
656,-763,-185,-1023,-1098,-485
824,-810,-282,-1102,-898,-581
937,-857,-261,-1151,-708,-604
1099,-890,-241,-1265,-655,-600
1298,-969,-350,-1402,-520,-579
1300,-1036,-488,-1497,-270,-476
1380,-1099,-543,-1566,-319,-366
1555,-1173,-622,-1620,-531,-210
1527,-1283,-667,-1648,-615,26
1317,-1347,-670,-1676,-670,233
1258,-1411,-694,-1739,-717,348
1250,-1517,-834,-1809,-641,398
1175,-1610,-1028,-1881,-439,390
1184,-1758,-1354,-1925,-214,333
1255,-1850,-1595,-1875,-29,318
1307,-1960,-1662,-1781,16,367
1362,-2092,-1666,-1690,-51,444
1360,-2172,-1594,-1602,-7,505
1255,-2229,-1556,-1574,114,531
1290,-2331,-1674,-1579,217,509
1386,-2401,-1698,-1512,293,496
1482,-2455,-1696,-1451,342,518
1532,-2545,-1790,-1424,437,563
1530,-2643,-1867,-1361,509,619
1483,-2758,-1942,-1276,590,666
1427,-2904,-2021,-1165,724,670
1392,-2980,-1928,-1025,794,617
1358,-3092,-1936,-954,905,551
1357,-3196,-1991,-879,1101,477
1352,-3254,-2040,-790,1184,438
1269,-3329,-2099,-705,1199,451
1211,-3368,-2111,-594,1203,460
1122,-3401,-2166,-489,1212,469
961,-3426,-2257,-353,1278,442
872,-3399,-2275,-151,1347,350
837,-3353,-2187,54,1414,241
815,-3283,-2067,227,1519,134
806,-3203,-1975,355,1601,59
775,-3113,-1879,468,1598,48
779,-3000,-1762,566,1572,56
719,-2891,-1668,636,1615,73
630,-2784,-1631,697,1626,94
620,-2683,-1646,761,1645,92
557,-2564,-1596,853,1671,110
432,-2453,-1525,931,1634,118
456,-2349,-1505,985,1644,85
541,-2230,-1463,1069,1723,71
511,-2107,-1369,1133,1752,133
484,-2013,-1307,1154,1663,197
498,-1932,-1316,1172,1641,220
521,-1859,-1286,1225,1641,268
495,-1753,-1181,1300,1510,365
430,-1659,-1024,1328,1431,406
469,-1582,-948,1303,1516,384
537,-1499,-906,1282,1515,436
556,-1402,-802,1264,1455,572
546,-1317,-698,1221,1369,727
473,-1232,-622,1161,1196,902
459,-1181,-583,1104,1056,1016
481,-1130,-568,1069,1068,1086
422,-1085,-617,1057,1105,1186
350,-1002,-634,1085,1123,1268
291,-925,-462,1122,1069,1328
219,-863,-328,1078,1098,1356
158,-796,-276,989,1127,1388
201,-732,-227,900,1010,1451
237,-632,-135,813,976,1543
208,-569,-71,700,934,1685
131,-557,-36,591,800,1826
-43,-560,-31,499,669,1902
-199,-575,-73,426,666,1826
-253,-615,-126,384,899,1642
-145,-640,-169,353,1099,1496
-36,-646,-163,328,1075,1500
-21,-656,-107,297,993,1588
-9,-639,-6,246,938,1666
25,-639,37,149,834,1771
-12,-644,66,52,693,1910
-163,-645,79,-37,531,2045
-394,-673,90,-118,531,2077
-572,-730,76,-199,652,1990
-733,-771,25,-266,680,1890
-900,-805,30,-321,708,1775
-1050,-831,147,-402,781,1611
-1154,-858,164,-559,863,1425
-1107,-894,93,-717,887,1276
-1068,-948,21,-837,794,1241
-1125,-1024,-14,-923,633,1255
-1212,-1078,-10,-994,530,1226
-1328,-1115,5,-1087,477,1186
-1415,-1202,-102,-1207,412,1128
-1528,-1260,-261,-1299,391,1061
-1629,-1320,-407,-1353,442,956
-1676,-1400,-533,-1367,532,843
-1755,-1477,-517,-1363,428,815
-1857,-1559,-446,-1374,212,804
-1943,-1634,-392,-1404,73,742
-1965,-1683,-428,-1458,82,630
-1988,-1762,-557,-1521,135,539
-2016,-1809,-623,-1532,25,478
-2041,-1913,-614,-1546,-136,426
-2056,-2008,-670,-1567,-237,353
-2089,-2072,-786,-1569,-220,255
-2149,-2194,-850,-1522,-244,151
-2120,-2221,-852,-1453,-365,47
-2155,-2306,-866,-1425,-529,7
-2173,-2419,-894,-1396,-732,-41
-2030,-2500,-951,-1356,-837,-161
-1901,-2624,-1059,-1316,-830,-249
-1847,-2751,-1078,-1246,-894,-301
-1792,-2815,-1150,-1173,-1006,-360
-1791,-2927,-1192,-1071,-1069,-415
-1721,-2979,-1119,-941,-1192,-520
-1559,-3007,-1118,-866,-1267,-622
-1443,-3076,-1271,-826,-1253,-677
-1378,-3125,-1464,-730,-1276,-707
-1336,-3171,-1495,-541,-1337,-714
-1302,-3152,-1331,-344,-1464,-722
-1307,-3132,-1275,-259,-1562,-740
-1366,-3124,-1337,-191,-1604,-776
-1345,-3089,-1314,-99,-1690,-854
-1263,-3099,-1303,-38,-1739,-940
-1144,-3167,-1377,6,-1788,-1030
-1005,-3246,-1519,90,-1732,-1157
-790,-3291,-1584,236,-1642,-1288
-539,-3296,-1640,386,-1631,-1347
-404,-3284,-1655,550,-1626,-1330
-318,-3230,-1619,721,-1670,-1272
-276,-3159,-1581,880,-1712,-1198
-331,-3051,-1519,1025,-1729,-1143
-381,-2932,-1400,1155,-1706,-1137
-407,-2789,-1276,1227,-1694,-1157
-441,-2696,-1240,1246,-1632,-1221
-380,-2637,-1266,1272,-1473,-1329
-278,-2543,-1267,1319,-1260,-1399
-225,-2433,-1248,1375,-1148,-1363
-244,-2283,-1159,1451,-1222,-1253
-334,-2109,-943,1503,-1338,-1138
-425,-1964,-760,1463,-1323,-1095
-424,-1833,-673,1370,-1281,-1102
-377,-1696,-646,1280,-1264,-1076
-370,-1556,-569,1193,-1303,-1005
-482,-1442,-520,1081,-1342,-945
-643,-1356,-571,954,-1250,-982
-669,-1287,-688,872,-1055,-1140
-604,-1242,-783,857,-866,-1314
-495,-1176,-756,904,-808,-1424
-337,-1097,-605,950,-935,-1433
-246,-1026,-508,922,-1061,-1356
-228,-942,-396,872,-1155,-1284
-232,-888,-228,798,-1237,-1249
-216,-840,-82,674,-1278,-1250
-204,-808,-63,505,-1228,-1291
-229,-786,-87,355,-1103,-1369
-176,-787,-140,224,-966,-1484
-9,-803,-255,125,-845,-1581
130,-804,-359,70,-738,-1589
229,-812,-348,58,-859,-1512
289,-793,-373,37,-1021,-1415
271,-768,-341,16,-1027,-1359
340,-737,-238,-17,-1060,-1356
503,-733,-194,-95,-1035,-1369
615,-741,-205,-193,-968,-1332
683,-741,-211,-276,-965,-1276
718,-726,-220,-356,-895,-1244
732,-745,-261,-444,-797,-1209
788,-768,-329,-500,-756,-1141
894,-733,-303,-531,-870,-1016
867,-760,-263,-592,-977,-824
778,-798,-223,-669,-1070,-673
789,-798,-178,-762,-1108,-608
789,-800,-120,-864,-1004,-584
741,-829,-88,-995,-847,-610
906,-844,-200,-1156,-771,-678
1026,-899,-314,-1270,-651,-691
1146,-942,-369,-1353,-597,-644
1225,-956,-350,-1395,-622,-536
1282,-1042,-454,-1491,-642,-418
1294,-1112,-583,-1553,-652,-334
1373,-1116,-640,-1583,-638,-282
1401,-1155,-658,-1623,-585,-187
1319,-1184,-658,-1705,-622,-56
1262,-1217,-719,-1822,-615,28
1176,-1309,-859,-1946,-483,56
1195,-1405,-980,-2028,-418,61
1293,-1475,-1100,-2075,-289,40
1360,-1534,-1304,-2136,-72,25
1456,-1665,-1593,-2184,56,46
1547,-1798,-1713,-2116,85,103
1605,-1901,-1739,-2036,217,122
1648,-2015,-1741,-1990,417,121
1685,-2120,-1761,-1967,508,134
1718,-2282,-1893,-1961,542,176
1724,-2423,-1966,-1898,582,213
1775,-2484,-2008,-1827,688,183
1943,-2580,-2212,-1778,855,175
2001,-2699,-2387,-1639,959,260
1984,-2780,-2355,-1438,1025,334
1979,-2848,-2225,-1280,1126,371
1911,-2976,-2204,-1167,1182,428
1780,-3032,-2107,-1019,1300,460
1660,-3094,-2018,-920,1476,426
1629,-3196,-2095,-867,1631,376
1553,-3252,-2146,-765,1729,378
1406,-3273,-2182,-674,1719,418
1204,-3312,-2253,-575,1738,420
993,-3322,-2338,-440,1820,343
913,-3294,-2408,-251,1965,188
902,-3228,-2385,-23,2102,61
836,-3121,-2235,201,2156,-1
837,-2997,-2044,372,2161,-47
843,-2854,-1863,495,2174,-69
886,-2719,-1728,578,2195,-77
923,-2580,-1643,638,2199,-34
819,-2469,-1631,696,2102,52
738,-2336,-1610,786,2144,21
765,-2200,-1569,871,2343,-80
829,-2099,-1615,945,2515,-104
888,-1986,-1616,1063,2467,10
922,-1832,-1494,1196,2224,226
1013,-1640,-1293,1277,1984,461
1043,-1466,-1148,1276,1815,731
874,-1341,-1110,1257,1632,984
627,-1246,-1056,1285,1588,1057
545,-1174,-989,1299,1826,924
651,-1116,-960,1280,2009,816
828,-1055,-948,1251,2010,871
896,-980,-890,1248,1903,1062
903,-866,-827,1247,1701,1309
887,-753,-724,1242,1456,1565
744,-670,-600,1229,1219,1799
510,-582,-522,1190,1224,1867
354,-540,-531,1134,1401,1789
407,-503,-428,1112,1508,1695
438,-460,-330,1052,1610,1686
355,-428,-208,965,1544,1791
353,-393,-44,853,1419,1857
445,-369,-12,694,1416,1913
491,-352,-2,559,1349,2074
546,-312,69,445,1132,2294
541,-290,27,317,898,2544
291,-304,-64,242,703,2760
3,-333,-52,226,716,2762
-82,-354,-25,174,982,2582
-145,-395,-54,93,1192,2473
-203,-415,-72,22,1235,2468
-412,-423,-23,-42,1212,2517
-697,-468,15,-140,1192,2488
-887,-499,70,-243,1177,2373
-975,-536,82,-373,1165,2229
-1031,-574,91,-501,1142,2100
-1132,-625,107,-641,1107,2006
-1217,-683,99,-787,1055,1916
-1222,-734,55,-933,1061,1811
-1268,-796,2,-1067,1038,1748
-1361,-881,6,-1172,960,1705
-1446,-953,-4,-1288,898,1641
-1516,-1093,-135,-1417,858,1560
-1634,-1225,-282,-1483,851,1472
-1772,-1304,-307,-1513,841,1332
-1804,-1326,-283,-1565,826,1163
-1855,-1406,-356,-1661,791,1062
-1916,-1452,-411,-1738,663,1024
-2042,-1478,-456,-1822,469,1024
-2099,-1525,-596,-1918,330,1009
-2278,-1678,-740,-1967,165,1028
-2427,-1828,-781,-1948,-70,956
-2458,-1855,-764,-1923,-128,753
-2521,-1906,-874,-1964,-7,533
-2550,-2001,-981,-1969,-56,369
-2466,-2036,-977,-1923,-210,248
-2432,-2151,-916,-1903,-405,218
-2456,-2271,-903,-1899,-634,192
-2412,-2348,-963,-1889,-734,78
-2426,-2455,-1070,-1871,-811,-65
-2335,-2549,-1197,-1824,-891,-251
-2215,-2643,-1290,-1731,-963,-399
-2190,-2754,-1285,-1604,-1042,-498
-2072,-2810,-1332,-1518,-1151,-625
-1985,-2989,-1488,-1450,-1232,-717
-1839,-3130,-1648,-1315,-1300,-830
-1634,-3243,-1730,-1140,-1396,-925
-1551,-3325,-1700,-941,-1532,-962
-1517,-3408,-1643,-752,-1629,-1022
-1452,-3448,-1562,-583,-1666,-1133
-1406,-3491,-1524,-446,-1668,-1263
-1315,-3567,-1575,-319,-1607,-1409
-1072,-3608,-1658,-177,-1544,-1582
-794,-3649,-1754,-31,-1513,-1684
-548,-3665,-1800,148,-1513,-1695
-318,-3675,-1927,329,-1462,-1652
-115,-3651,-2044,545,-1493,-1535
-94,-3527,-1962,802,-1606,-1346
