ax,ay,az,gx,gy,gz
-301,-1822,-1165,1206,-598,-1000
-258,-1737,-1176,1193,-618,-1037
-182,-1648,-1141,1168,-630,-1027
-153,-1600,-1114,1113,-629,-1009
-78,-1542,-1087,1059,-601,-1031
26,-1463,-1018,1032,-572,-1090
46,-1376,-950,1004,-527,-1126
10,-1333,-915,947,-506,-1103
3,-1292,-847,887,-556,-1070
26,-1236,-776,827,-585,-1063
20,-1227,-789,735,-561,-1050
4,-1264,-847,662,-629,-992
61,-1269,-892,629,-717,-927
142,-1268,-929,606,-721,-869
129,-1290,-939,603,-702,-825
139,-1281,-896,604,-672,-837
191,-1213,-796,613,-648,-863
195,-1141,-700,584,-622,-865
178,-1110,-629,503,-590,-860
167,-1097,-612,411,-579,-842
162,-1049,-592,326,-647,-775
182,-1014,-546,235,-738,-704
243,-1030,-562,116,-762,-679
383,-1055,-632,3,-713,-692
478,-1075,-669,-71,-686,-681
480,-1094,-675,-134,-677,-647
483,-1096,-682,-213,-649,-620
551,-1139,-727,-309,-654,-572
607,-1218,-731,-393,-651,-502
566,-1253,-714,-447,-617,-410
473,-1268,-671,-468,-615,-338
375,-1270,-660,-512,-597,-358
405,-1220,-632,-559,-565,-458
496,-1216,-612,-644,-490,-579
557,-1253,-660,-754,-418,-656
601,-1311,-747,-833,-372,-683
677,-1378,-820,-860,-408,-689
707,-1387,-845,-852,-456,-672
712,-1382,-874,-854,-488,-636
691,-1400,-940,-868,-589,-559
684,-1414,-993,-882,-711,-471
805,-1362,-982,-911,-739,-436
920,-1356,-973,-978,-634,-474
931,-1464,-1057,-1046,-476,-570
974,-1527,-1106,-1033,-393,-664
1091,-1492,-1071,-984,-413,-673
1210,-1454,-1031,-990,-452,-577
1275,-1513,-1096,-1061,-453,-455
1340,-1621,-1252,-1114,-451,-378
1365,-1690,-1363,-1102,-425,-341
1338,-1682,-1398,-1070,-319,-347
1281,-1670,-1362,-1054,-145,-397
1272,-1667,-1324,-1044,23,-478
1310,-1641,-1254,-1026,137,-534
1342,-1639,-1217,-1040,245,-513
1340,-1685,-1254,-1091,274,-404
1316,-1725,-1302,-1120,233,-261
1312,-1758,-1341,-1153,207,-146
1274,-1824,-1406,-1168,245,-122
1187,-1890,-1483,-1147,342,-192
1199,-1948,-1540,-1103,454,-291
1300,-2041,-1646,-1055,541,-328
1350,-2130,-1693,-975,572,-272
1352,-2160,-1621,-851,607,-209
1346,-2127,-1491,-737,625,-182
1309,-2084,-1394,-686,647,-162
1290,-2030,-1341,-691,705,-152
1318,-2029,-1346,-723,810,-175
1363,-2072,-1416,-726,903,-222
1464,-2061,-1450,-662,965,-266
1559,-2039,-1473,-582,1026,-252
1566,-2118,-1558,-513,1094,-172
1550,-2153,-1603,-395,1074,-44
1565,-2113,-1582,-254,1002,97
1495,-2079,-1551,-161,972,236
1386,-2064,-1530,-98,1022,301
1308,-2092,-1537,-28,1120,274
1268,-2127,-1558,65,1206,218
1251,-2093,-1534,187,1258,189
1202,-2016,-1451,285,1291,218
1072,-1982,-1397,331,1339,269
979,-1971,-1418,362,1357,288
1037,-1938,-1419,415,1353,294
1092,-1876,-1396,464,1392,333
1025,-1817,-1381,508,1429,393
923,-1775,-1352,565,1396,446
862,-1691,-1283,633,1315,502
797,-1595,-1209,668,1270,559
770,-1508,-1151,672,1245,568
830,-1435,-1086,653,1256,513
916,-1362,-1063,618,1264,485
925,-1302,-1043,600,1218,538
864,-1240,-1016,578,1139,638
793,-1174,-1000,540,1060,744
749,-1134,-973,484,1001,821
713,-1121,-957,414,1000,847
675,-1114,-973,348,1024,836
699,-1125,-1002,305,1011,839
781,-1091,-983,297,948,894
796,-1030,-929,288,880,997
738,-963,-868,254,831,1100
727,-889,-792,208,775,1169
636,-867,-724,126,755,1196
488,-909,-744,15,811,1146
500,-956,-781,-81,832,1043
612,-994,-816,-156,811,995
604,-1089,-887,-229,778,1052
582,-1177,-937,-265,704,1130
569,-1184,-907,-247,628,1186
564,-1135,-834,-263,584,1214
530,-1165,-801,-324,571,1195
456,-1171,-793,-374,596,1134
394,-1167,-777,-426,631,1052
343,-1219,-784,-498,649,995
351,-1229,-763,-548,613,979
342,-1220,-712,-590,520,1018
309,-1209,-691,-653,403,1095
297,-1225,-716,-734,319,1158
255,-1283,-765,-814,281,1191
165,-1358,-839,-867,292,1168
113,-1415,-918,-882,310,1082
95,-1469,-934,-866,286,992
18,-1472,-909,-856,256,942
-107,-1494,-914,-892,256,891
-202,-1573,-961,-935,209,842
-251,-1605,-993,-931,64,843
-305,-1608,-993,-927,-110,883
-348,-1598,-961,-958,-205,879
-449,-1638,-942,-1009,-192,781
-484,-1701,-947,-1055,-158,597
-362,-1750,-936,-1088,-155,424
-265,-1868,-998,-1134,-208,373
-298,-2014,-1112,-1144,-324,403
-348,-2106,-1202,-1098,-446,408
-442,-2162,-1258,-1028,-542,365
-591,-2203,-1279,-948,-591,275
-674,-2221,-1281,-872,-644,152
-683,-2234,-1277,-812,-750,47
-599,-2210,-1233,-792,-854,-53
-362,-2251,-1266,-835,-875,-179
-49,-2385,-1391,-868,-841,-306
228,-2486,-1472,-801,-853,-370
449,-2525,-1447,-653,-934,-303
486,-2506,-1354,-512,-1042,-143
343,-2487,-1293,-413,-1113,-13
216,-2500,-1287,-341,-1148,16
187,-2511,-1287,-275,-1168,-13
189,-2536,-1347,-237,-1128,-87
178,-2639,-1512,-194,-1048,-206
354,-2711,-1611,-87,-956,-359
628,-2686,-1605,61,-876,-458
756,-2648,-1568,196,-829,-444
713,-2615,-1487,321,-816,-361
601,-2553,-1407,426,-830,-282
485,-2503,-1381,488,-873,-230
342,-2480,-1401,529,-887,-220
223,-2451,-1419,574,-853,-294
190,-2417,-1429,611,-762,-436
211,-2373,-1452,657,-675,-589
404,-2312,-1429,705,-593,-728
674,-2266,-1404,742,-473,-824
815,-2277,-1435,801,-362,-851
908,-2245,-1435,918,-356,-778
923,-2140,-1322,1042,-428,-583
728,-2083,-1229,1092,-490,-364
497,-2036,-1187,1111,-519,-269
300,-1985,-1163,1124,-505,-297
176,-1949,-1192,1113,-463,-384
169,-1921,-1217,1097,-398,-479
210,-1881,-1217,1092,-342,-556
251,-1835,-1192,1084,-283,-610
330,-1787,-1165,1077,-219,-650
412,-1771,-1140,1080,-220,-636
433,-1726,-1097,1102,-288,-546
363,-1675,-1079,1112,-357,-435
246,-1644,-1054,1102,-412,-364
204,-1614,-1007,1080,-441,-366
174,-1617,-1012,1042,-439,-399
113,-1620,-1037,1010,-448,-428
154,-1596,-1019,985,-455,-466
222,-1583,-993,941,-445,-481
209,-1590,-999,912,-452,-490
214,-1566,-998,919,-460,-540
276,-1532,-978,922,-433,-587
313,-1528,-970,907,-402,-593
300,-1502,-936,905,-413,-579
311,-1439,-854,897,-448,-566
307,-1385,-777,849,-489,-531
241,-1377,-734,762,-507,-505
207,-1372,-714,677,-495,-530
240,-1359,-697,603,-491,-569
240,-1367,-713,521,-507,-579
233,-1381,-779,451,-549,-568
239,-1386,-808,407,-601,-556
248,-1375,-818,370,-614,-554
224,-1408,-852,347,-612,-565
243,-1404,-813,357,-648,-556
222,-1311,-726,365,-714,-512
156,-1251,-659,315,-764,-491
187,-1210,-620,216,-742,-555
312,-1222,-636,99,-643,-679
502,-1247,-686,5,-571,-764
646,-1247,-699,-61,-558,-745
661,-1277,-674,-127,-547,-654
650,-1317,-689,-162,-561,-583
631,-1320,-710,-150,-634,-511
603,-1279,-689,-155,-706,-426
543,-1282,-704,-203,-716,-379
482,-1295,-721,-252,-724,-385
477,-1284,-729,-293,-709,-452
575,-1269,-752,-351,-647,-555
693,-1257,-770,-418,-584,-625
800,-1244,-770,-490,-509,-661
881,-1244,-780,-549,-447,-675
944,-1207,-768,-577,-447,-644
1001,-1142,-735,-625,-486,-569
959,-1141,-753,-709,-517,-468
875,-1184,-815,-782,-510,-416
864,-1233,-872,-825,-512,-404
865,-1247,-889,-856,-546,-376
849,-1278,-918,-911,-550,-370
824,-1362,-1005,-987,-516,-414
880,-1407,-1079,-1027,-492,-486
1091,-1369,-1055,-1065,-413,-552
1100,-1451,-1135,-1140,-285,-571
1062,-1506,-1226,-1154,-250,-583
1184,-1473,-1183,-1119,-279,-586
1281,-1458,-1119,-1142,-266,-517
1260,-1519,-1116,-1183,-222,-445
1267,-1587,-1109,-1200,-164,-440
1334,-1641,-1126,-1212,-119,-445
1386,-1679,-1167,-1217,-100,-416
1463,-1727,-1216,-1235,-34,-397
1557,-1813,-1317,-1246,57,-393
1630,-1894,-1400,-1216,131,-380
1694,-1943,-1420,-1165,215,-363
1776,-1988,-1397,-1117,286,-308
1828,-2024,-1345,-1073,347,-198
1746,-2073,-1312,-1023,412,-94
1636,-2101,-1307,-972,478,-61
1569,-2077,-1316,-935,566,-94
1465,-2096,-1381,-928,684,-146
1399,-2156,-1473,-906,798,-201
1465,-2160,-1505,-837,854,-233
1544,-2172,-1538,-753,860,-181
1519,-2252,-1667,-660,844,-54
1536,-2269,-1747,-519,798,105
1634,-2201,-1666,-380,787,237
1570,-2173,-1567,-262,854,309
1396,-2153,-1524,-156,917,308
1363,-2089,-1469,-77,992,251
1385,-2060,-1451,-43,1096,229
1316,-2055,-1477,-1,1160,250
1243,-2031,-1495,68,1174,277
1234,-1985,-1488,141,1165,320
1208,-1960,-1480,203,1164,396
1154,-1918,-1467,271,1143,476
1124,-1869,-1451,346,1140,499
1105,-1807,-1421,417,1174,488
1122,-1727,-1350,461,1254,473
1091,-1676,-1318,475,1335,475
1030,-1613,-1309,501,1346,517
997,-1510,-1252,527,1315,573
943,-1453,-1233,516,1293,642
867,-1431,-1230,506,1251,704
815,-1393,-1201,508,1217,733
811,-1359,-1172,502,1194,741
814,-1351,-1152,499,1147,764
832,-1316,-1128,508,1112,800
796,-1251,-1088,512,1100,840
746,-1161,-1017,496,1091,852
681,-1151,-983,440,1099,829
686,-1137,-978,381,1077,804
762,-1094,-949,338,1031,802
775,-1066,-921,294,959,842
722,-1047,-925,241,888,912
696,-1036,-939,201,788,995
633,-1008,-912,160,691,1077
564,-972,-866,91,692,1077
522,-979,-857,7,744,990
526,-988,-858,-57,763,900
627,-973,-825,-115,757,861
695,-959,-815,-192,747,885
670,-959,-839,-261,719,949
585,-987,-875,-308,661,1018
509,-1009,-878,-342,586,1087
468,-1022,-859,-381,514,1145
398,-1026,-833,-429,470,1175
242,-1078,-823,-496,478,1151
188,-1145,-836,-570,513,1059
242,-1158,-811,-629,516,966
242,-1212,-815,-701,513,917
233,-1298,-888,-770,507,891
214,-1339,-933,-782,446,896
180,-1314,-894,-781,368,931
80,-1321,-872,-810,340,938
-15,-1375,-862,-851,314,911
-35,-1424,-844,-891,264,857
-4,-1501,-861,-947,205,819
15,-1564,-892,-990,142,803
2,-1626,-914,-1009,95,768
-15,-1650,-921,-1006,40,708
-17,-1618,-883,-1002,-9,635
14,-1609,-840,-1039,-15,552
24,-1669,-894,-1095,-33,494
12,-1751,-958,-1121,-101,489
-82,-1816,-1038,-1128,-205,518
-283,-1899,-1143,-1127,-319,527
-430,-1981,-1209,-1100,-397,451
-476,-2031,-1232,-1075,-427,311
-432,-2119,-1306,-1068,-409,139
-314,-2183,-1383,-1015,-434,-14
-203,-2194,-1385,-933,-511,-92
-141,-2186,-1368,-858,-599,-112
-121,-2174,-1319,-780,-701,-112
-89,-2143,-1242,-725,-801,-123
25,-2172,-1218,-723,-842,-188
197,-2248,-1285,-729,-843,-260
300,-2349,-1368,-696,-843,-275
314,-2415,-1421,-620,-878,-221
221,-2439,-1458,-523,-932,-156
153,-2470,-1501,-426,-967,-164
248,-2475,-1506,-338,-944,-249
416,-2495,-1531,-269,-888,-347
599,-2532,-1552,-191,-855,-408
789,-2536,-1539,-91,-820,-429
923,-2509,-1497,7,-772,-399
941,-2498,-1467,108,-742,-345
854,-2485,-1442,217,-738,-292
729,-2446,-1424,311,-760,-244
585,-2424,-1425,367,-767,-212
356,-2423,-1425,413,-783,-201
198,-2373,-1416,466,-793,-251
194,-2330,-1401,499,-779,-354
208,-2338,-1448,506,-737,-459
264,-2328,-1509,559,-693,-571
429,-2274,-1532,646,-656,-656
608,-2212,-1513,741,-631,-668
719,-2137,-1441,831,-608,-641
789,-2033,-1356,893,-581,-600
846,-1980,-1297,924,-534,-563
850,-1988,-1333,948,-470,-535
824,-1970,-1343,989,-433,-494
790,-1916,-1309,1022,-397,-455
716,-1901,-1300,1028,-350,-434
658,-1903,-1333,1032,-323,-415
656,-1867,-1334,1052,-342,-364
627,-1839,-1321,1069,-351,-304
587,-1824,-1292,1072,-336,-267
548,-1804,-1277,1075,-320,-264
548,-1771,-1274,1085,-305,-280
545,-1751,-1253,1088,-258,-308
521,-1740,-1235,1088,-196,-349
493,-1703,-1196,1106,-166,-390
438,-1641,-1137,1099,-128,-405
377,-1617,-1115,1058,-134,-396
299,-1632,-1106,1023,-178,-377
205,-1595,-1098,1000,-236,-361
132,-1539,-1049,978,-287,-377
95,-1505,-1019,935,-314,-415
131,-1475,-1011,886,-338,-465
207,-1469,-1023,843,-342,-521
281,-1479,-1013,816,-315,-555
266,-1469,-964,809,-301,-573
215,-1446,-896,800,-298,-602
187,-1430,-829,769,-317,-621
139,-1422,-821,717,-364,-625
73,-1418,-837,661,-407,-642
48,-1395,-833,613,-446,-678
76,-1372,-857,567,-466,-729
99,-1350,-888,533,-496,-766
139,-1307,-897,505,-519,-802
231,-1252,-868,472,-511,-847
261,-1247,-852,430,-499,-873
267,-1230,-854,397,-548,-861
322,-1187,-814,372,-629,-826
304,-1168,-760,317,-700,-765
241,-1175,-751,255,-755,-727
211,-1165,-746,204,-837,-704
161,-1145,-745,125,-901,-672
130,-1131,-787,22,-914,-715
222,-1142,-847,-64,-878,-863
389,-1135,-895,-118,-800,-1023
647,-1123,-918,-162,-733,-1124
884,-1106,-914,-202,-721,-1115
1040,-1091,-923,-231,-734,-1015
1116,-1090,-918,-239,-783,-869
1099,-1079,-852,-235,-859,-704
1068,-1036,-754,-265,-893,-587
1084,-1013,-692,-346,-870,-537
1074,-1041,-702,-460,-832,-509
1027,-1107,-791,-571,-792,-498
1044,-1151,-866,-649,-742,-508
1116,-1160,-934,-703,-694,-507
1165,-1195,-987,-746,-650,-477
1245,-1215,-1022,-774,-611,-441
1378,-1214,-1030,-796,-575,-403
1484,-1234,-1022,-825,-530,-334
1466,-1295,-1037,-853,-464,-251
1435,-1346,-1027,-868,-410,-184
1403,-1352,-966,-870,-396,-106
1336,-1345,-947,-918,-395,-4
1249,-1398,-1039,-1007,-379,85
1218,-1488,-1200,-1083,-353,131
1345,-1560,-1307,-1122,-281,110
1440,-1653,-1391,-1129,-140,56
1470,-1711,-1409,-1085,-17,16
1512,-1729,-1332,-1036,73,32
1503,-1719,-1227,-1001,99,113
1452,-1720,-1179,-993,142,165
1409,-1769,-1199,-1002,211,165
1385,-1792,-1235,-1004,277,167
1361,-1837,-1311,-1021,325,200
1341,-1921,-1415,-1022,356,244
1328,-1972,-1502,-980,377,274
1304,-2036,-1540,-917,431,288
1254,-2118,-1520,-837,510,271
1234,-2125,-1441,-738,563,229
1232,-2105,-1366,-676,626,175
1260,-2131,-1387,-658,723,110
1327,-2178,-1461,-619,798,60
1359,-2202,-1500,-536,833,66
1345,-2183,-1521,-445,835,120
1327,-2133,-1486,-361,809,203
1267,-2106,-1447,-306,835,257
1157,-2155,-1487,-253,879,273
1082,-2183,-1491,-159,870,289
978,-2149,-1431,-58,847,315
875,-2120,-1397,8,857,292
873,-2069,-1378,69,872,219
959,-2006,-1343,112,914,149
991,-2002,-1385,139,980,116
1026,-1997,-1426,206,988,118
1037,-1941,-1414,296,949,175
951,-1868,-1380,356,912,262
870,-1817,-1340,391,918,282
871,-1801,-1312,418,956,229
912,-1779,-1304,449,980,192
893,-1728,-1295,480,965,221
845,-1678,-1267,495,934,262
868,-1616,-1221,498,907,278
924,-1548,-1187,494,894,283
949,-1500,-1178,490,889,298
923,-1453,-1163,496,874,330
892,-1400,-1146,491,856,366
907,-1364,-1127,479,845,388
897,-1327,-1098,464,842,411
831,-1311,-1091,440,834,438
795,-1283,-1063,415,820,448
795,-1242,-1033,378,839,433
820,-1208,-1016,342,847,402
899,-1160,-985,314,844,392
941,-1124,-969,268,826,437
928,-1113,-981,225,788,505
931,-1070,-953,192,752,563
837,-1073,-940,147,752,599
766,-1102,-972,97,777,590
771,-1078,-931,73,760,574
736,-1064,-897,34,749,578
713,-1081,-904,-20,718,602
752,-1082,-864,-67,675,629
739,-1102,-871,-123,650,668
740,-1109,-881,-163,590,720
749,-1100,-863,-198,518,783
724,-1099,-852,-251,496,819
692,-1110,-845,-298,528,790
673,-1120,-851,-344,578,740
695,-1118,-842,-394,595,724
713,-1119,-838,-450,566,770
659,-1154,-864,-512,525,843
605,-1185,-870,-560,489,886
554,-1195,-849,-604,458,914
462,-1236,-881,-660,430,934
438,-1287,-925,-702,396,934
481,-1325,-953,-729,381,915
473,-1341,-978,-739,370,905
434,-1334,-957,-731,350,884
410,-1314,-901,-749,357,837
380,-1357,-876,-806,404,765
358,-1454,-900,-857,407,724
316,-1503,-896,-877,308,762
229,-1513,-885,-908,189,837
105,-1546,-904,-955,113,864
-14,-1585,-945,-981,69,807
-79,-1600,-967,-983,44,699
-113,-1613,-1000,-984,13,587
-94,-1636,-1003,-992,-31,494
18,-1688,-1031,-1022,-39,397
148,-1774,-1088,-1046,-65,332
186,-1874,-1128,-1025,-151,335
196,-1913,-1132,-990,-234,355
183,-1971,-1151,-968,-311,376
145,-2053,-1212,-942,-373,364
132,-2123,-1285,-891,-420,321
120,-2165,-1322,-817,-479,289
35,-2208,-1346,-748,-519,267
-76,-2259,-1405,-686,-573,242
-199,-2265,-1433,-609,-687,225
-247,-2243,-1396,-561,-760,147
-164,-2259,-1374,-562,-702,-36
28,-2293,-1392,-538,-631,-256
264,-2300,-1405,-469,-631,-386
460,-2295,-1420,-396,-690,-355
472,-2293,-1428,-316,-789,-226
395,-2246,-1402,-224,-877,-128
310,-2185,-1369,-141,-925,-109
283,-2120,-1352,-76,-961,-133
446,-2055,-1317,-52,-924,-219
610,-2103,-1384,-63,-751,-358
725,-2168,-1459,6,-647,-432
799,-2098,-1388,138,-685,-373
740,-2000,-1273,199,-733,-236
601,-1993,-1250,193,-747,-146
501,-2022,-1273,187,-736,-150
465,-2052,-1310,193,-725,-190
416,-2109,-1391,207,-724,-224
418,-2171,-1483,250,-724,-257
475,-2196,-1557,317,-698,-307
509,-2219,-1596,399,-667,-338
546,-2191,-1573,482,-649,-360
578,-2166,-1551,549,-626,-369
616,-2154,-1511,605,-609,-355
681,-2136,-1455,654,-594,-347
735,-2106,-1414,693,-573,-340
778,-2113,-1397,719,-529,-332
784,-2132,-1403,746,-470,-317
761,-2121,-1404,782,-417,-298
707,-2119,-1420,813,-380,-285
666,-2105,-1432,857,-351,-289
662,-2085,-1437,902,-314,-301
622,-2052,-1429,957,-305,-283
575,-1978,-1388,1015,-321,-257
556,-1908,-1318,1041,-311,-242
570,-1881,-1267,1038,-259,-257
584,-1855,-1240,1044,-220,-291
543,-1815,-1204,1060,-188,-313
476,-1775,-1166,1049,-157,-322
413,-1762,-1155,1019,-121,-353
348,-1789,-1217,995,-87,-392
322,-1819,-1291,1002,-82,-413
310,-1775,-1282,1040,-132,-403
276,-1733,-1248,1065,-195,-382
247,-1695,-1221,1065,-250,-369
237,-1670,-1177,1065,-283,-387
212,-1633,-1132,1060,-289,-428
210,-1564,-1065,1045,-285,-485
216,-1507,-1005,997,-249,-545
203,-1520,-990,933,-218,-592
192,-1515,-997,897,-256,-610
178,-1468,-981,878,-338,-592
147,-1443,-973,834,-379,-584
117,-1439,-992,799,-406,-621
144,-1413,-1007,787,-440,-676
257,-1373,-988,767,-451,-724
314,-1382,-984,739,-444,-744
316,-1378,-971,728,-465,-748
337,-1313,-890,723,-512,-741
348,-1249,-808,678,-547,-719
313,-1237,-798,607,-568,-709
273,-1215,-805,547,-617,-692
216,-1197,-815,486,-677,-663
142,-1205,-836,413,-730,-646
67,-1174,-851,360,-770,-667
102,-1138,-847,309,-789,-736
332,-1152,-865,231,-762,-840
588,-1177,-903,176,-726,-902
733,-1184,-912,169,-710,-902
814,-1151,-845,171,-699,-860
850,-1078,-727,159,-719,-787
854,-1015,-652,95,-728,-712
823,-999,-649,-1,-747,-635
788,-982,-653,-97,-774,-566
766,-997,-707,-210,-783,-522
822,-1030,-764,-304,-791,-511
952,-1064,-809,-370,-748,-529
1064,-1090,-818,-414,-708,-529
1157,-1118,-769,-448,-651,-516
1257,-1139,-706,-486,-602,-471
1306,-1131,-638,-520,-598,-371
1235,-1125,-582,-583,-599,-250
1172,-1130,-575,-673,-582,-167
1165,-1142,-612,-774,-593,-98
1156,-1186,-711,-900,-592,-27
1141,-1284,-868,-1012,-562,28
1165,-1371,-1028,-1053,-536,58
1204,-1424,-1134,-1056,-482,65
1221,-1468,-1195,-1038,-399,62
1223,-1499,-1215,-1013,-330,69
1290,-1504,-1176,-1002,-275,99
1319,-1502,-1097,-1008,-240,167
1288,-1525,-1068,-1037,-226,240
1327,-1571,-1088,-1086,-214,289
1394,-1651,-1161,-1152,-154,324
1459,-1747,-1270,-1198,-46,332
1529,-1834,-1389,-1192,82,324
1605,-1907,-1455,-1143,194,336
1647,-1962,-1433,-1080,314,362
1614,-2020,-1379,-1012,429,412
1561,-2033,-1310,-950,491,469
1474,-2063,-1277,-917,561,509
1348,-2146,-1366,-906,613,550
1235,-2180,-1450,-878,627,586
1054,-2229,-1517,-849,727,563
880,-2298,-1594,-792,879,428
922,-2286,-1595,-690,972,267
1041,-2308,-1613,-607,1013,210
1069,-2384,-1672,-504,990,280
1037,-2383,-1591,-354,904,389
986,-2349,-1465,-225,843,461
892,-2298,-1379,-138,827,472
841,-2267,-1329,-95,884,395
865,-2297,-1363,-69,983,279
931,-2297,-1390,2,1020,198
985,-2213,-1354,86,1052,171
947,-2172,-1350,129,1112,187
880,-2183,-1400,188,1112,201
860,-2130,-1400,275,1069,215
851,-2042,-1348,345,1053,237
845,-1969,-1285,388,1059,232
853,-1925,-1252,419,1076,209
855,-1895,-1262,448,1074,217
819,-1865,-1275,487,1059,250
784,-1849,-1280,530,1047,275
753,-1793,-1244,579,1029,288
705,-1722,-1193,608,1001,295
721,-1676,-1146,599,1001,282
729,-1668,-1149,571,1012,271
684,-1673,-1205,557,1008,270
672,-1673,-1239,574,978,264
664,-1630,-1216,605,940,260
658,-1557,-1154,617,916,251
726,-1511,-1107,605,898,236
836,-1481,-1076,587,863,259
886,-1448,-1060,576,812,328
834,-1380,-1015,573,745,407
794,-1308,-949,552,726,433
811,-1272,-914,494,750,418
763,-1273,-938,434,770,413
711,-1257,-929,390,791,389
736,-1223,-908,344,814,351
752,-1200,-903,295,799,352
763,-1170,-896,253,769,382
826,-1086,-861,204,763,400
917,-1028,-838,140,766,426
1002,-964,-814,75,760,485
996,-892,-783,15,723,604
886,-852,-761,-66,690,735
707,-875,-770,-162,696,796
568,-919,-809,-243,732,769
529,-971,-832,-304,740,735
476,-1006,-843,-362,703,753
345,-1064,-862,-418,657,774
313,-1098,-855,-467,617,761
306,-1134,-842,-519,581,741
276,-1184,-851,-569,548,725
270,-1213,-844,-604,523,693
254,-1223,-803,-632,483,674
257,-1243,-774,-680,470,652
243,-1267,-779,-731,445,633
202,-1287,-769,-764,378,645
159,-1291,-743,-807,294,678
89,-1319,-742,-867,218,708
-3,-1374,-758,-929,157,703
-74,-1444,-796,-982,115,651
-89,-1470,-788,-1018,68,578
-53,-1516,-792,-1078,73,468
45,-1604,-870,-1141,87,342
199,-1652,-919,-1150,44,268
267,-1681,-942,-1141,-24,277
260,-1714,-978,-1138,-90,320
250,-1747,-1008,-1130,-153,338
263,-1785,-1022,-1118,-183,318
245,-1841,-1063,-1109,-195,289
226,-1902,-1121,-1083,-239,277
197,-1935,-1136,-1039,-294,280
131,-1953,-1142,-1001,-344,289
45,-1980,-1168,-967,-413,304
-60,-2024,-1216,-932,-504,324
-96,-2077,-1295,-896,-565,293
10,-2138,-1353,-853,-549,170
203,-2183,-1349,-789,-479,13
335,-2216,-1294,-715,-474,-33
391,-2222,-1248,-650,-568,28
366,-2204,-1222,-627,-637,137
233,-2288,-1272,-630,-687,236
133,-2356,-1333,-571,-751,218
25,-2372,-1344,-473,-793,151
-85,-2399,-1416,-418,-854,133
-110,-2439,-1463,-375,-936,112
-3,-2448,-1460,-332,-928,-11
114,-2521,-1501,-280,-814,-235
273,-2560,-1559,-178,-771,-392
429,-2509,-1519,-48,-862,-363
406,-2448,-1464,49,-962,-258
315,-2401,-1439,130,-1003,-238
498,-2340,-1396,207,-973,-357
732,-2318,-1376,259,-895,-472
888,-2306,-1382,309,-811,-509
1041,-2282,-1362,358,-745,-470
1054,-2281,-1322,421,-708,-407
951,-2229,-1278,506,-661,-384
768,-2193,-1260,562,-641,-341
573,-2166,-1269,596,-679,-284
471,-2133,-1263,615,-712,-281
487,-2137,-1305,627,-660,-374
514,-2143,-1376,676,-589,-501
552,-2086,-1385,747,-532,-585
566,-2027,-1371,790,-516,-579
554,-1981,-1361,817,-524,-546
559,-1940,-1335,854,-508,-565
573,-1899,-1325,895,-486,-601
607,-1845,-1286,928,-486,-600
658,-1812,-1221,931,-475,-572
689,-1776,-1148,915,-455,-540
669,-1776,-1135,865,-399,-532
630,-1853,-1241,804,-327,-547
652,-1937,-1389,794,-293,-552
678,-1978,-1484,831,-279,-516
646,-1974,-1521,886,-269,-459
602,-1957,-1496,948,-249,-411
581,-1925,-1436,994,-227,-379
547,-1888,-1352,1030,-210,-369
530,-1821,-1256,1048,-207,-356
502,-1774,-1207,1025,-193,-337
475,-1787,-1210,989,-148,-354
434,-1789,-1230,988,-129,-379
398,-1740,-1197,1009,-127,-391
403,-1680,-1137,1012,-129,-387
398,-1638,-1076,990,-140,-370
369,-1628,-1079,958,-154,-353
402,-1611,-1035,949,-181,-334
366,-1593,-983,937,-192,-311
270,-1569,-950,919,-189,-326
226,-1546,-915,901,-189,-370
218,-1525,-878,867,-198,-391
178,-1510,-884,826,-220,-403
160,-1474,-879,794,-242,-437
170,-1436,-854,767,-266,-470
154,-1388,-828,733,-304,-483
138,-1327,-785,691,-351,-489
156,-1270,-710,633,-388,-511
165,-1244,-689,552,-410,-527
179,-1259,-744,471,-438,-543
223,-1262,-790,429,-482,-567
219,-1263,-821,409,-505,-583
206,-1239,-812,401,-504,-614
250,-1187,-748,380,-504,-659
310,-1136,-681,330,-532,-672
351,-1124,-689,250,-575,-662
423,-1141,-746,170,-597,-663
551,-1133,-764,115,-602,-674
657,-1131,-759,69,-596,-678
696,-1133,-755,21,-601,-656
772,-1122,-731,-30,-608,-624
845,-1148,-721,-92,-603,-578
895,-1181,-748,-145,-608,-507
893,-1221,-775,-184,-639,-412
865,-1227,-775,-226,-677,-311
871,-1216,-730,-278,-675,-262
897,-1219,-726,-341,-637,-259
923,-1258,-758,-400,-582,-267
953,-1287,-764,-440,-531,-279
973,-1278,-729,-472,-490,-277
1009,-1257,-668,-522,-476,-245
1032,-1249,-648,-595,-468,-198
1013,-1283,-698,-676,-449,-162
1044,-1332,-768,-747,-420,-146
1105,-1391,-866,-806,-400,-118
1149,-1454,-965,-849,-384,-68
1151,-1502,-1019,-863,-366,-22
1116,-1530,-1038,-858,-336,12
1067,-1531,-1009,-851,-326,48
1043,-1528,-955,-864,-319,79
1068,-1544,-919,-914,-287,89
1102,-1575,-945,-978,-207,65
1149,-1636,-1026,-1019,-131,23
1202,-1677,-1081,-1024,-93,17
1255,-1695,-1101,-1021,-41,25
1314,-1728,-1142,-1025,33,17
1317,-1769,-1170,-1001,95,17
1306,-1809,-1192,-977,139,46
1307,-1874,-1210,-963,130,134
1215,-1933,-1238,-944,110,230
1088,-1962,-1251,-926,143,238
1057,-1964,-1246,-906,214,151
1087,-1948,-1264,-898,316,38
1115,-1953,-1301,-896,448,-76
1238,-1971,-1318,-882,561,-175
1385,-2004,-1346,-842,586,-168
1416,-2093,-1401,-790,541,-26
1332,-2167,-1415,-702,468,154
1211,-2161,-1337,-599,436,261
1189,-2140,-1271,-536,474,248
1186,-2185,-1289,-505,565,176
1158,-2252,-1374,-474,694,83
1185,-2309,-1437,-406,811,-17
1238,-2304,-1445,-315,856,-30
1192,-2281,-1434,-240,852,47
1148,-2285,-1450,-176,857,112
1085,-2314,-1465,-82,863,142
1028,-2263,-1417,30,853,171
981,-2199,-1333,112,854,192
944,-2184,-1299,164,874,185
909,-2139,-1292,221,908,160
877,-2074,-1295,274,939,125
925,-2058,-1302,317,970,87
1003,-2068,-1296,375,986,85
1008,-1963,-1253,448,1017,150
881,-1878,-1238,512,1031,211
836,-1830,-1196,554,990,215
869,-1754,-1124,583,958,227
847,-1670,-1075,587,952,243
822,-1644,-1075,581,943,224
878,-1531,-1043,578,908,222
930,-1464,-1024,513,936,234
947,-1458,-1069,466,957,228
945,-1420,-1097,479,977,188
939,-1375,-1091,491,1003,169
939,-1284,-1018,488,982,222
902,-1185,-944,445,964,279
867,-1152,-931,358,1016,283
885,-1135,-941,286,1067,274
897,-1091,-933,245,1061,298
926,-1046,-922,191,1010,381
943,-1032,-930,115,961,489
876,-1041,-950,54,910,585
792,-1068,-966,11,872,650
733,-1097,-968,-25,821,699
696,-1112,-956,-60,776,732
656,-1157,-968,-94,755,742
596,-1154,-947,-112,729,746
541,-1132,-905,-152,737,716
543,-1164,-904,-221,774,657
574,-1177,-922,-269,777,632
588,-1151,-898,-301,716,673
590,-1122,-841,-352,671,736
523,-1146,-833,-414,641,787
450,-1171,-861,-453,567,831
449,-1162,-836,-475,480,863
416,-1168,-812,-522,445,877
346,-1198,-805,-583,460,835
342,-1239,-827,-632,466,759
392,-1275,-872,-677,448,721
387,-1298,-892,-709,401,739
317,-1300,-878,-734,352,773
304,-1263,-823,-771,323,790
248,-1290,-821,-837,312,782
223,-1348,-866,-892,282,753
240,-1403,-864,-924,237,730
200,-1488,-880,-954,167,736
138,-1549,-913,-971,96,729
110,-1591,-940,-994,76,668
110,-1636,-974,-1015,99,570
154,-1656,-993,-1015,93,472
231,-1660,-997,-1028,62,414
292,-1704,-1048,-1052,17,395
343,-1751,-1083,-1051,-54,405
333,-1805,-1077,-1045,-105,414
287,-1861,-1073,-1036,-120,381
220,-1923,-1062,-1010,-118,302
212,-1929,-1045,-974,-133,219
214,-1927,-1014,-944,-173,164
194,-1931,-1007,-923,-201,114
185,-1960,-1034,-894,-219,56
192,-1998,-1056,-846,-289,42
130,-2031,-1086,-806,-409,98
-38,-2091,-1151,-787,-534,165
-230,-2167,-1264,-778,-615,151
-361,-2247,-1381,-743,-692,56
-447,-2307,-1474,-685,-760,-72
-435,-2332,-1537,-629,-786,-247
-289,-2352,-1594,-558,-788,-466
58,-2346,-1614,-481,-771,-667
425,-2344,-1635,-400,-764,-751
693,-2356,-1625,-306,-821,-690
851,-2356,-1605,-202,-893,-556
861,-2330,-1551,-105,-958,-391
793,-2308,-1507,-32,-982,-285
773,-2301,-1495,30,-944,-284
802,-2321,-1494,89,-864,-334
872,-2336,-1511,153,-791,-359
902,-2320,-1514,229,-755,-316
797,-2297,-1511,298,-753,-229
661,-2261,-1466,366,-763,-167
580,-2200,-1442,428,-762,-192
607,-2197,-1433,473,-713,-271
739,-2186,-1428,514,-673,-323
817,-2170,-1412,568,-653,-324
847,-2154,-1402,617,-633,-304
890,-2134,-1375,663,-593,-303
893,-2120,-1364,707,-529,-310
869,-2096,-1372,756,-496,-296
791,-2106,-1392,795,-470,-259
638,-2112,-1419,838,-453,-225
487,-2078,-1408,895,-470,-217
391,-2044,-1412,930,-488,-234
386,-2008,-1425,947,-473,-285
465,-1990,-1423,971,-409,-393
582,-1944,-1399,1020,-355,-498
709,-1872,-1348,1058,-319,-533
778,-1814,-1291,1076,-319,-490
769,-1756,-1223,1086,-321,-440
749,-1742,-1195,1073,-297,-415
735,-1747,-1210,1055,-290,-386
724,-1763,-1246,1046,-285,-355
717,-1766,-1270,1051,-259,-342
692,-1739,-1231,1067,-208,-345
633,-1723,-1212,1069,-153,-366
626,-1707,-1201,1070,-132,-378
604,-1678,-1173,1070,-136,-350
552,-1655,-1129,1056,-153,-309
499,-1623,-1090,1038,-183,-280
421,-1610,-1067,1011,-210,-264
316,-1594,-1073,978,-216,-279
253,-1596,-1103,951,-207,-331
242,-1593,-1120,944,-212,-385
258,-1556,-1102,947,-223,-427
274,-1517,-1056,940,-240,-455
324,-1480,-996,916,-250,-479
356,-1458,-958,878,-271,-478
305,-1448,-935,844,-311,-459
260,-1422,-890,814,-347,-460
245,-1384,-847,771,-373,-479
214,-1366,-844,717,-392,-502
230,-1367,-862,667,-418,-534
307,-1349,-864,634,-445,-564
387,-1341,-867,604,-441,-593
455,-1353,-890,583,-438,-610
520,-1339,-854,582,-461,-596
521,-1300,-773,564,-467,-563
464,-1276,-726,522,-474,-541
450,-1265,-685,470,-505,-520
440,-1260,-666,401,-551,-476
361,-1247,-680,331,-618,-423
299,-1210,-678,269,-676,-406
254,-1187,-692,191,-705,-423
233,-1209,-766,109,-701,-477
318,-1238,-858,67,-694,-563
527,-1229,-870,57,-688,-637
685,-1200,-843,51,-682,-667
808,-1152,-790,37,-698,-651
933,-1095,-714,-3,-721,-591
921,-1104,-673,-77,-715,-511
878,-1122,-671,-143,-727,-451
867,-1105,-654,-200,-752,-397
817,-1133,-658,-278,-748,-349
749,-1168,-696,-351,-747,-332
800,-1168,-697,-414,-744,-357
946,-1181,-703,-498,-700,-390
1070,-1204,-712,-578,-646,-404
1128,-1253,-758,-634,-582,-422
1208,-1266,-777,-659,-550,-399
1241,-1244,-748,-689,-570,-298
1157,-1246,-754,-760,-573,-178
1102,-1275,-811,-852,-568,-124
1093,-1347,-927,-931,-566,-111
1033,-1434,-1027,-973,-551,-102
972,-1503,-1064,-977,-521,-129
1004,-1553,-1034,-967,-497,-176
1062,-1583,-991,-972,-475,-210
1165,-1595,-984,-1000,-419,-261
1295,-1635,-1039,-1031,-351,-312
1379,-1671,-1097,-1053,-295,-330
1431,-1689,-1137,-1066,-211,-336
1472,-1670,-1149,-1062,-150,-331
1483,-1644,-1119,-1058,-102,-313
1462,-1630,-1064,-1066,-20,-297
1405,-1654,-1025,-1070,58,-282
1416,-1673,-1001,-1055,100,-275
1556,-1672,-968,-1049,159,-267
1649,-1771,-1040,-1069,233,-214
1728,-1903,-1171,-1075,246,-60
1777,-2014,-1337,-1062,170,194
1610,-2127,-1508,-1016,119,457
1314,-2209,-1572,-922,183,550
1155,-2235,-1551,-806,329,432
1174,-2206,-1479,-703,486,250
1251,-2209,-1439,-645,623,133
1345,-2255,-1452,-590,688,128
1445,-2226,-1444,-501,664,212
1475,-2179,-1392,-429,663,312
1420,-2170,-1397,-383,735,356
1417,-2178,-1421,-330,806,354
1420,-2190,-1445,-281,848,394
1314,-2243,-1532,-226,872,469
1182,-2303,-1624,-129,899,505
1070,-2298,-1630,6,935,503
948,-2260,-1572,138,963,484
918,-2217,-1523,245,980,445
945,-2150,-1493,329,980,419
994,-2063,-1454,396,980,412
1020,-1973,-1385,442,1017,392
970,-1911,-1342,479,1062,364
940,-1809,-1285,520,1072,352
938,-1764,-1256,544,1066,348
934,-1728,-1240,565,1068,362
891,-1683,-1218,595,1051,398
852,-1626,-1185,638,1002,444
792,-1536,-1146,629,980,458
811,-1545,-1165,575,1016,410
