ax,ay,az,gx,gy,gz
1781,-2556,-1366,-1334,313,1041
1540,-2636,-1490,-1279,261,1248
1265,-2709,-1569,-1175,323,1320
1140,-2812,-1597,-1056,515,1226
1076,-2924,-1622,-928,723,1101
996,-2985,-1597,-794,955,981
1007,-3038,-1551,-682,1095,866
1008,-3117,-1539,-587,1171,817
946,-3184,-1522,-476,1254,792
871,-3218,-1465,-368,1286,774
768,-3273,-1473,-278,1260,774
553,-3362,-1516,-163,1239,775
345,-3424,-1550,-11,1247,689
170,-3465,-1555,155,1353,512
63,-3502,-1606,307,1441,312
65,-3479,-1626,486,1441,122
83,-3409,-1572,673,1448,-30
151,-3289,-1463,827,1446,-158
241,-3175,-1400,910,1441,-241
252,-3065,-1361,988,1427,-261
279,-2923,-1279,1072,1356,-265
306,-2764,-1215,1124,1274,-255
244,-2642,-1210,1162,1206,-247
178,-2508,-1168,1232,1213,-321
266,-2355,-1062,1306,1356,-461
384,-2207,-1022,1334,1433,-538
469,-2102,-998,1376,1460,-526
625,-1975,-812,1437,1399,-477
739,-1852,-682,1417,1307,-370
782,-1763,-602,1379,1273,-252
814,-1666,-527,1342,1226,-145
788,-1576,-462,1280,1207,-47
667,-1538,-425,1201,1269,3
668,-1499,-407,1122,1380,-17
735,-1432,-392,1048,1489,5
652,-1395,-391,985,1440,148
533,-1328,-313,948,1275,301
547,-1262,-229,881,1120,415
563,-1235,-187,805,964,543
548,-1172,-135,744,838,667
490,-1122,-107,676,779,741
353,-1130,-87,605,813,722
322,-1119,-94,544,1084,561
405,-1090,-85,487,1318,440
471,-1059,-101,429,1336,487
525,-1010,-9,390,1210,642
595,-945,103,321,1033,850
614,-883,126,208,840,1117
468,-840,158,100,616,1391
282,-841,155,-5,435,1530
145,-869,123,-98,506,1475
21,-896,40,-167,829,1324
-52,-913,-42,-211,1041,1201
15,-905,-21,-240,1082,1164
112,-887,56,-306,911,1282
72,-887,60,-401,663,1514
-43,-883,92,-467,387,1732
-258,-900,98,-532,264,1820
-495,-943,64,-598,388,1713
-572,-980,64,-638,649,1451
-505,-993,21,-711,823,1236
-462,-1034,-80,-790,798,1168
-505,-1053,-142,-848,683,1174
-548,-1079,-197,-898,607,1195
-609,-1082,-166,-927,456,1260
-755,-1079,-113,-970,251,1329
-932,-1095,-93,-1044,206,1304
-1038,-1155,-155,-1148,309,1180
-1102,-1284,-234,-1221,325,1060
-1151,-1383,-239,-1263,311,958
-1183,-1464,-325,-1339,330,857
-1219,-1572,-466,-1410,315,795
-1287,-1634,-565,-1416,294,747
-1355,-1669,-625,-1411,293,692
-1406,-1786,-644,-1403,280,612
-1452,-1872,-659,-1384,197,548
-1528,-1936,-605,-1357,31,513
-1596,-1976,-521,-1353,-106,451
-1645,-1994,-563,-1410,-178,383
-1712,-2048,-662,-1461,-293,340
-1726,-2121,-746,-1478,-438,298
-1717,-2193,-796,-1478,-629,261
-1742,-2327,-873,-1482,-709,158
-1757,-2504,-968,-1457,-612,-27
-1642,-2628,-1053,-1396,-600,-222
-1410,-2726,-1145,-1301,-689,-336
-1299,-2783,-1108,-1163,-784,-329
-1235,-2866,-1068,-1081,-927,-295
-1131,-2966,-1118,-1032,-1070,-277
-1128,-3072,-1143,-940,-1153,-250
-1102,-3164,-1192,-844,-1201,-280
-1062,-3197,-1232,-726,-1233,-339
-1136,-3279,-1198,-583,-1256,-369
-1070,-3354,-1156,-460,-1284,-489
-902,-3362,-1195,-360,-1250,-628
-854,-3395,-1212,-231,-1254,-675
-774,-3394,-1152,-98,-1295,-732
-737,-3383,-1112,3,-1311,-774
-705,-3416,-1152,68,-1334,-843
-525,-3436,-1247,151,-1272,-980
-410,-3414,-1264,274,-1201,-1059
-324,-3347,-1264,386,-1247,-1054
-264,-3277,-1243,491,-1323,-1001
-199,-3246,-1301,566,-1341,-986
-155,-3170,-1403,680,-1272,-974
-199,-3071,-1374,841,-1286,-924
-155,-2963,-1314,981,-1381,-900
-116,-2831,-1222,1098,-1419,-864
-152,-2676,-1090,1168,-1439,-826
-133,-2580,-1045,1167,-1416,-834
-110,-2493,-1016,1168,-1308,-859
-130,-2383,-959,1172,-1166,-883
-117,-2298,-965,1169,-1099,-878
-97,-2218,-922,1195,-1111,-838
-92,-2132,-872,1226,-1091,-804
-77,-2052,-843,1252,-1073,-778
-71,-1968,-755,1276,-1132,-726
-150,-1911,-644,1276,-1197,-673
-208,-1813,-553,1235,-1150,-693
-238,-1729,-491,1159,-1029,-756
-239,-1670,-508,1064,-917,-831
-214,-1638,-561,981,-777,-908
-176,-1605,-674,942,-621,-947
-150,-1567,-733,979,-591,-931
-166,-1470,-682,1052,-666,-864
-235,-1367,-553,1084,-799,-782
-300,-1302,-403,1060,-908,-764
-261,-1256,-349,977,-904,-834
-207,-1198,-324,902,-845,-889
-174,-1150,-251,818,-792,-933
-145,-1128,-256,715,-696,-979
-92,-1084,-251,638,-610,-1009
34,-1078,-260,572,-648,-997
107,-1074,-225,535,-747,-928
72,-1029,-159,503,-809,-857
51,-980,-124,432,-871,-829
84,-954,-126,347,-915,-841
97,-966,-189,259,-937,-856
93,-963,-228,210,-949,-870
154,-943,-176,173,-998,-894
247,-948,-221,83,-969,-941
309,-946,-332,16,-874,-969
339,-899,-306,15,-867,-982
393,-856,-260,-27,-889,-993
527,-838,-216,-91,-904,-982
653,-822,-167,-173,-951,-922
655,-838,-142,-264,-1008,-828
646,-827,-64,-332,-1040,-775
691,-830,-13,-424,-1005,-771
693,-838,-9,-531,-946,-770
704,-846,-14,-642,-926,-778
801,-868,-61,-768,-895,-788
868,-902,-111,-897,-859,-752
833,-956,-223,-1016,-888,-641
836,-1042,-322,-1090,-1034,-511
893,-1106,-327,-1126,-1196,-419
903,-1134,-319,-1180,-1219,-368
843,-1202,-358,-1251,-1099,-384
915,-1309,-469,-1325,-876,-516
1059,-1401,-623,-1354,-577,-657
1209,-1442,-683,-1341,-478,-656
1268,-1517,-628,-1341,-571,-545
1269,-1587,-607,-1408,-608,-434
1260,-1650,-705,-1508,-596,-357
1311,-1682,-856,-1588,-584,-302
1415,-1718,-951,-1633,-528,-275
1476,-1827,-1099,-1686,-424,-232
1456,-1948,-1209,-1657,-317,-178
1479,-2019,-1159,-1591,-286,-143
1546,-2109,-1148,-1578,-215,-121
1540,-2189,-1252,-1588,-53,-84
1572,-2236,-1366,-1573,-35,-25
1619,-2277,-1432,-1535,-80,42
1581,-2297,-1520,-1505,-32,102
1535,-2343,-1618,-1452,160,105
1506,-2393,-1687,-1365,396,59
1507,-2456,-1676,-1253,518,61
1502,-2512,-1583,-1140,484,106
1539,-2539,-1534,-1076,479,132
1583,-2574,-1532,-1045,597,131
1582,-2635,-1600,-1016,752,127
1588,-2702,-1650,-954,872,143
1589,-2728,-1620,-871,901,188
1531,-2775,-1664,-824,941,251
1407,-2855,-1789,-746,1039,290
1322,-2898,-1854,-596,1110,289
1234,-2895,-1783,-428,1173,266
1180,-2869,-1686,-305,1285,216
1140,-2873,-1663,-226,1377,178
1100,-2840,-1614,-138,1407,169
1112,-2776,-1548,-71,1452,164
1078,-2743,-1575,-29,1450,210
1001,-2724,-1646,60,1424,263
950,-2651,-1633,200,1451,259
918,-2585,-1660,325,1524,247
847,-2513,-1617,481,1549,248
795,-2375,-1452,624,1576,220
810,-2253,-1282,691,1615,184
780,-2141,-1168,716,1647,168
735,-2057,-1116,715,1722,134
775,-1997,-1085,711,1816,94
812,-1934,-1102,723,1811,129
902,-1871,-1127,757,1677,241
967,-1785,-1008,816,1594,367
860,-1730,-979,819,1577,506
727,-1703,-997,841,1484,595
723,-1620,-958,894,1450,577
671,-1566,-887,930,1558,536
651,-1517,-836,949,1631,513
669,-1458,-747,964,1569,542
715,-1377,-670,946,1391,643
766,-1284,-546,925,1195,790
852,-1176,-395,859,1071,924
835,-1130,-391,737,1011,1082
691,-1119,-458,661,1014,1222
588,-1078,-421,646,1112,1248
575,-1036,-360,616,1193,1243
538,-1016,-373,563,1292,1267
469,-991,-401,523,1330,1326
438,-972,-392,504,1197,1413
411,-895,-314,497,1073,1504
343,-841,-207,457,1030,1592
264,-806,-177,374,960,1654
202,-780,-144,297,894,1679
210,-762,-54,220,944,1655
242,-737,16,113,997,1667
231,-738,-9,-17,1004,1746
191,-787,-155,-114,905,1864
80,-816,-197,-116,799,1973
-94,-822,-83,-95,774,2023
-224,-818,51,-123,704,2027
-376,-822,115,-207,652,1995
-569,-873,123,-317,725,1886
-680,-916,110,-432,790,1723
-661,-936,52,-548,751,1590
-672,-990,16,-650,693,1508
-696,-1040,-36,-751,675,1445
-767,-1094,-126,-843,643,1421
-865,-1154,-207,-907,549,1417
-972,-1194,-205,-948,461,1378
-1057,-1246,-178,-1022,421,1290
-1153,-1351,-238,-1118,436,1181
-1261,-1438,-316,-1192,384,1096
-1341,-1516,-360,-1241,290,1005
-1399,-1582,-412,-1288,238,879
-1424,-1627,-507,-1327,263,726
-1418,-1694,-570,-1349,263,597
-1426,-1819,-608,-1355,173,516
-1410,-1878,-607,-1352,82,432
-1356,-1933,-642,-1371,-15,388
-1319,-2008,-738,-1388,-146,400
-1399,-2117,-807,-1374,-266,450
-1508,-2246,-802,-1320,-423,479
-1542,-2285,-780,-1282,-552,431
-1677,-2400,-833,-1294,-582,362
-1811,-2521,-911,-1279,-584,219
-1782,-2612,-1019,-1245,-558,3
-1654,-2745,-1161,-1179,-566,-155
-1528,-2837,-1135,-1044,-688,-223
-1467,-2874,-1004,-933,-856,-262
-1409,-2943,-1016,-906,-943,-320
-1298,-3010,-1100,-867,-1016,-400
-1185,-3090,-1149,-779,-1082,-466
-1083,-3141,-1141,-662,-1171,-513
-1004,-3203,-1158,-563,-1218,-568
-967,-3224,-1204,-458,-1237,-614
-948,-3196,-1204,-338,-1290,-655
-990,-3229,-1233,-240,-1288,-705
-990,-3250,-1270,-145,-1342,-785
-867,-3226,-1324,-57,-1378,-896
-798,-3226,-1376,29,-1380,-966
-756,-3228,-1431,120,-1416,-1026
-633,-3209,-1447,219,-1496,-1112
-462,-3177,-1470,312,-1563,-1184
-339,-3149,-1467,417,-1545,-1241
-240,-3130,-1514,520,-1470,-1284
-126,-3095,-1512,652,-1454,-1297
50,-3043,-1482,768,-1420,-1317
196,-2986,-1518,861,-1296,-1315
267,-2913,-1514,994,-1242,-1230
288,-2800,-1401,1134,-1317,-1096
184,-2685,-1242,1230,-1324,-991
41,-2584,-1121,1278,-1272,-948
-11,-2477,-1020,1302,-1281,-944
-84,-2362,-927,1311,-1227,-963
-188,-2243,-837,1288,-1122,-1006
-265,-2140,-823,1233,-998,-1065
-277,-2028,-829,1187,-964,-1118
-251,-1951,-779,1146,-938,-1159
-207,-1900,-854,1087,-866,-1170
-120,-1826,-910,1091,-836,-1153
-83,-1741,-870,1133,-837,-1094
-95,-1640,-755,1167,-910,-1012
-140,-1525,-611,1156,-961,-966
-191,-1435,-544,1102,-919,-967
-228,-1344,-517,1040,-863,-987
-219,-1264,-489,974,-833,-1016
-101,-1175,-478,912,-796,-1052
-53,-1093,-412,846,-764,-1037
-167,-1068,-396,772,-754,-987
-232,-996,-346,722,-762,-1008
-179,-954,-338,661,-779,-1096
-23,-929,-361,612,-778,-1177
106,-877,-332,580,-778,-1193
190,-838,-283,519,-838,-1174
168,-828,-270,433,-837,-1160
147,-818,-281,348,-824,-1168
251,-810,-275,276,-805,-1215
370,-804,-264,186,-815,-1240
435,-818,-314,93,-796,-1233
481,-795,-356,41,-760,-1211
560,-769,-356,-3,-832,-1157
648,-743,-341,-64,-872,-1109
647,-740,-353,-146,-848,-1041
650,-748,-345,-210,-890,-976
666,-752,-352,-281,-928,-922
675,-776,-367,-352,-980,-848
690,-800,-360,-402,-1074,-790
676,-802,-333,-470,-1066,-779
638,-841,-365,-554,-995,-796
631,-880,-399,-628,-979,-830
678,-910,-452,-703,-998,-852
796,-922,-470,-765,-1063,-836
868,-919,-430,-837,-1119,-806
893,-972,-456,-927,-1109,-768
893,-1012,-418,-984,-1071,-752
990,-1035,-440,-1082,-1006,-781
1155,-1091,-554,-1188,-893,-791
1241,-1159,-682,-1244,-833,-729
1342,-1201,-717,-1270,-841,-646
1408,-1283,-757,-1306,-811,-537
1396,-1339,-759,-1324,-779,-426
1435,-1401,-854,-1374,-740,-359
1513,-1442,-1041,-1418,-673,-267
1620,-1480,-1141,-1420,-655,-137
1655,-1552,-1213,-1423,-656,32
1584,-1625,-1274,-1419,-640,201
1559,-1669,-1293,-1411,-577,273
1610,-1717,-1304,-1422,-426,278
1685,-1811,-1387,-1440,-222,309
1783,-1886,-1513,-1430,-83,388
1780,-1961,-1634,-1368,-39,575
1746,-1977,-1544,-1262,-141,772
1709,-1998,-1528,-1238,-133,884
1573,-2052,-1617,-1259,117,924
1442,-2154,-1798,-1259,365,893
1413,-2243,-1892,-1193,481,859
1446,-2301,-1877,-1102,504,844
1473,-2393,-1895,-1031,545,846
1491,-2496,-1890,-945,638,850
1427,-2580,-1837,-862,712,865
1361,-2685,-1862,-815,801,855
1283,-2773,-1853,-745,914,806
1264,-2824,-1807,-690,984,731
1326,-2900,-1911,-660,1080,669
1243,-2958,-1953,-577,1115,679
1140,-2996,-1957,-482,1156,653
1090,-3063,-1990,-375,1273,596
1044,-3111,-1974,-221,1309,570
1008,-3102,-1887,-76,1305,555
910,-3108,-1858,35,1302,547
836,-3087,-1794,155,1314,498
753,-3011,-1740,266,1391,420
626,-2946,-1716,360,1488,335
548,-2849,-1677,452,1541,235
534,-2755,-1658,537,1611,149
542,-2644,-1583,631,1648,109
625,-2558,-1533,713,1659,92
708,-2432,-1482,805,1677,117
702,-2293,-1368,894,1620,206
625,-2179,-1277,949,1568,286
551,-2088,-1248,994,1577,291
530,-2021,-1240,1042,1688,234
544,-1918,-1131,1103,1771,194
517,-1833,-1021,1117,1758,225
526,-1769,-942,1095,1646,278
576,-1707,-915,1062,1547,343
620,-1632,-822,1044,1385,456
677,-1557,-739,1000,1226,563
680,-1538,-831,944,1118,682
568,-1516,-914,968,1066,772
480,-1470,-870,1039,1101,769
504,-1407,-777,1084,1196,713
541,-1353,-705,1085,1258,691
554,-1311,-633,1063,1290,717
601,-1276,-550,1020,1248,781
735,-1199,-452,965,1118,889
825,-1105,-337,885,964,1071
805,-1041,-253,778,795,1289
716,-979,-212,666,715,1463
556,-918,-208,572,716,1557
377,-885,-205,493,797,1546
376,-887,-312,432,955,1459
396,-882,-398,442,1020,1433
387,-879,-447,499,1043,1453
423,-821,-292,573,1019,1484
449,-735,-73,556,918,1551
417,-694,-20,445,847,1639
387,-693,-42,336,849,1679
434,-700,-126,254,917,1695
361,-693,-202,214,909,1789
207,-686,-200,201,889,1871
113,-680,-133,181,843,1898
15,-671,-76,135,802,1909
-113,-659,-62,77,830,1892
-265,-665,-3,32,872,1862
-381,-652,124,-27,846,1831
-455,-635,192,-135,802,1795
-555,-618,213,-274,793,1762
-650,-638,212,-421,812,1703
-747,-696,183,-579,819,1624
-812,-788,94,-722,822,1534
-849,-856,16,-826,756,1466
-915,-932,-85,-901,696,1419
-1073,-1001,-119,-948,664,1371
-1210,-1054,-192,-1023,677,1266
-1259,-1139,-334,-1111,650,1153
-1280,-1231,-407,-1151,575,1084
-1292,-1305,-392,-1179,518,1049
-1399,-1374,-392,-1228,482,1026
-1549,-1442,-416,-1290,434,988
-1687,-1490,-468,-1352,366,908
-1758,-1526,-579,-1418,242,829
-1820,-1647,-694,-1447,150,767
-1867,-1747,-775,-1436,59,687
-1890,-1845,-883,-1414,0,599
-1920,-2004,-910,-1358,-97,532
-1919,-2073,-850,-1300,-217,423
-1887,-2106,-838,-1299,-250,302
-1904,-2237,-920,-1308,-251,209
-1866,-2284,-948,-1270,-329,135
-1769,-2305,-872,-1236,-472,107
-1802,-2414,-858,-1242,-597,121
-1813,-2486,-921,-1249,-719,80
-1713,-2574,-1078,-1226,-772,-17
-1616,-2696,-1189,-1134,-748,-105
-1485,-2752,-1163,-1021,-759,-173
-1466,-2786,-1145,-934,-826,-180
-1500,-2836,-1133,-871,-904,-178
-1398,-2922,-1200,-822,-990,-221
-1420,-3003,-1225,-727,-1047,-254
-1466,-2998,-1151,-623,-1037,-340
-1442,-2992,-1078,-575,-1016,-459
-1414,-3041,-1160,-580,-1054,-548
-1363,-3092,-1299,-551,-1100,-634
-1372,-3162,-1399,-462,-1177,-719
-1294,-3231,-1506,-357,-1336,-831
-1074,-3266,-1588,-216,-1409,-983
-891,-3280,-1578,-50,-1377,-1094
-806,-3287,-1476,104,-1370,-1163
-664,-3284,-1388,206,-1334,-1255
-479,-3306,-1413,263,-1301,-1323
-298,-3317,-1497,331,-1301,-1350
-169,-3329,-1553,431,-1281,-1347
-30,-3284,-1580,543,-1240,-1314
60,-3242,-1686,650,-1224,-1246
90,-3204,-1774,818,-1193,-1142
36,-3079,-1675,1040,-1171,-1035
-79,-2957,-1530,1223,-1138,-969
-210,-2803,-1377,1356,-1109,-951
-308,-2658,-1218,1431,-1020,-982
-287,-2500,-1103,1465,-977,-1023
-229,-2324,-961,1461,-935,-1011
-276,-2188,-860,1405,-944,-908
-315,-2067,-771,1337,-1076,-812
-342,-1993,-781,1268,-1079,-787
-424,-1906,-806,1249,-940,-813
-465,-1809,-778,1262,-819,-896
-431,-1697,-738,1254,-716,-993
-434,-1605,-721,1235,-643,-1034
-456,-1493,-653,1228,-646,-1038
-450,-1390,-589,1189,-720,-1022
-469,-1301,-547,1137,-832,-962
-467,-1218,-408,1096,-953,-928
-418,-1147,-290,1010,-977,-959
-410,-1074,-246,888,-915,-978
-342,-1032,-218,778,-890,-1015
-246,-1000,-237,678,-830,-1075
-236,-943,-274,596,-679,-1133
-246,-913,-268,533,-566,-1201
-206,-901,-300,473,-484,-1263
-119,-861,-295,448,-521,-1286
-74,-847,-279,427,-548,-1272
-43,-824,-192,420,-607,-1228
30,-747,-18,369,-787,-1182
90,-714,33,222,-836,-1158
153,-737,5,66,-844,-1148
289,-729,-28,-68,-862,-1155
346,-741,-119,-187,-798,-1130
345,-761,-205,-262,-781,-1100
395,-765,-270,-304,-760,-1108
449,-776,-344,-333,-739,-1098
471,-796,-368,-335,-742,-1065
539,-787,-291,-342,-777,-1026
641,-780,-210,-411,-850,-948
684,-822,-192,-513,-927,-832
703,-844,-162,-603,-991,-735
695,-876,-137,-699,-937,-704
684,-929,-202,-815,-845,-687
706,-951,-209,-896,-837,-663
721,-987,-241,-998,-803,-648
814,-1085,-370,-1088,-776,-638
941,-1136,-418,-1102,-728,-617
986,-1171,-414,-1118,-682,-567
1047,-1216,-386,-1179,-656,-516
1177,-1262,-441,-1267,-598,-456
1245,-1326,-546,-1337,-563,-336
1231,-1397,-605,-1367,-488,-217
1276,-1479,-643,-1402,-385,-159
1340,-1568,-715,-1449,-252,-113
1370,-1660,-836,-1503,-119,-45
1443,-1744,-1004,-1541,-39,34
1488,-1804,-1165,-1549,66,142
1521,-1847,-1225,-1529,49,313
1505,-1861,-1240,-1520,-41,516
1381,-1930,-1311,-1533,-97,712
1213,-2012,-1459,-1512,-72,828
1101,-2055,-1492,-1432,94,797
1074,-2075,-1418,-1364,252,726
1093,-2093,-1388,-1364,388,689
1065,-2151,-1415,-1392,460,721
1015,-2216,-1493,-1404,441,768
1006,-2298,-1618,-1382,478,765
993,-2358,-1679,-1312,578,733
992,-2425,-1697,-1234,653,699
941,-2525,-1685,-1156,786,649
939,-2652,-1716,-1102,971,570
968,-2765,-1711,-1030,1012,533
922,-2890,-1718,-960,990,537
885,-3020,-1713,-878,1051,482
878,-3113,-1693,-803,1180,384
874,-3211,-1787,-745,1270,317
860,-3293,-1884,-634,1316,282
786,-3332,-1862,-470,1352,256
699,-3366,-1865,-331,1371,226
625,-3385,-1903,-195,1353,194
494,-3342,-1861,-58,1364,149
391,-3292,-1824,51,1407,73
372,-3232,-1810,167,1402,-3
373,-3154,-1771,297,1399,-58
398,-3050,-1714,423,1408,-99
470,-2946,-1648,536,1380,-108
490,-2837,-1591,635,1370,-76
420,-2726,-1536,735,1351,-45
359,-2614,-1486,831,1418,-87
343,-2521,-1440,921,1527,-179
318,-2413,-1405,996,1650,-249
409,-2309,-1351,1061,1649,-266
489,-2200,-1245,1117,1525,-195
506,-2109,-1169,1144,1422,-92
589,-2002,-1050,1172,1269,25
682,-1874,-945,1173,1054,180
636,-1786,-933,1150,893,323
391,-1729,-926,1150,974,306
386,-1667,-894,1165,1254,89
604,-1570,-866,1170,1413,-43
712,-1492,-784,1177,1431,17
791,-1378,-597,1168,1323,140
875,-1272,-464,1078,1201,324
942,-1211,-429,971,1052,561
978,-1117,-360,888,798,839
885,-1072,-331,797,589,1105
760,-1045,-355,726,533,1232
685,-1026,-454,675,542,1261
569,-1014,-527,676,667,1221
518,-1008,-513,705,974,1084
605,-959,-421,722,1118,1009
728,-912,-337,684,1122,1065
862,-865,-349,612,1020,1239
849,-801,-314,572,860,1512
703,-769,-257,517,711,1764
579,-734,-261,451,598,1902
396,-741,-265,405,579,1936
293,-747,-270,369,785,1817
272,-758,-245,334,918,1716
301,-750,-198,292,944,1684
351,-730,-152,215,1005,1699
194,-743,-210,119,1012,1797
22,-742,-252,65,893,1871
-70,-713,-223,40,797,1884
-199,-711,-131,5,769,1862
-283,-711,-65,-75,837,1767
-333,-725,-75,-165,903,1696
-452,-736,-53,-227,874,1685
-600,-736,41,-300,825,1666
-752,-743,64,-430,800,1605
-913,-796,-10,-573,810,1517
-1017,-812,-53,-686,835,1359
-1044,-847,-111,-811,988,1159
-1033,-915,-215,-918,992,1051
-1018,-940,-256,-992,856,1028
-1084,-1022,-269,-1081,788,1024
-1197,-1138,-306,-1174,772,977
-1289,-1237,-405,-1261,756,886
-1339,-1312,-515,-1324,748,803
-1374,-1348,-583,-1353,650,752
-1425,-1354,-595,-1384,528,733
-1554,-1395,-628,-1427,424,744
-1686,-1412,-628,-1442,300,730
-1827,-1475,-566,-1467,209,672
-1972,-1602,-565,-1520,211,520
-2005,-1695,-631,-1590,210,313
-1891,-1825,-805,-1651,181,113
-1774,-1966,-1019,-1653,120,18
-1715,-2075,-1156,-1582,47,3
-1722,-2174,-1144,-1486,-41,28
-1729,-2264,-1121,-1433,-250,81
-1717,-2403,-1165,-1428,-480,136
-1721,-2605,-1218,-1393,-628,133
-1631,-2672,-1273,-1323,-673,51
-1598,-2770,-1365,-1239,-646,-6
-1618,-2899,-1383,-1097,-694,-24
-1550,-2972,-1361,-959,-792,-64
-1516,-3105,-1412,-853,-845,-91
-1461,-3165,-1398,-732,-958,-127
-1379,-3167,-1343,-634,-1032,-174
-1348,-3201,-1375,-568,-1034,-186
-1310,-3212,-1397,-487,-1153,-182
-1346,-3247,-1359,-401,-1245,-200
-1411,-3294,-1308,-338,-1241,-295
-1349,-3326,-1251,-292,-1269,-452
-1268,-3380,-1293,-271,-1259,-620
-1091,-3407,-1374,-242,-1218,-788
-843,-3420,-1391,-197,-1135,-906
-654,-3452,-1512,-177,-1093,-896
-515,-3498,-1738,-95,-1184,-832
-474,-3516,-1887,93,-1212,-785
-521,-3449,-1959,327,-1220,-752
-489,-3321,-1950,578,-1314,-726
-451,-3155,-1890,816,-1432,-692
-545,-2976,-1768,989,-1411,-660
-720,-2796,-1639,1103,-1379,-684
-797,-2614,-1590,1172,-1323,-793
-745,-2451,-1523,1235,-1263,-905
-588,-2302,-1408,1287,-1339,-932
-498,-2159,-1267,1308,-1441,-887
-522,-2056,-1191,1294,-1471,-838
-510,-1979,-1230,1293,-1479,-829
-580,-1879,-1268,1350,-1384,-864
-675,-1761,-1191,1422,-1243,-940
-621,-1631,-1037,1451,-1158,-1050
-586,-1545,-946,1404,-1060,-1114
-519,-1487,-936,1344,-1024,-1125
-426,-1390,-855,1304,-1112,-1086
-403,-1342,-789,1238,-1179,-1008
-411,-1284,-728,1195,-1217,-961
-357,-1199,-649,1155,-1222,-957
-310,-1129,-517,1103,-1206,-969
-368,-1080,-440,1015,-1099,-1015
-424,-1013,-385,926,-977,-1109
-371,-945,-334,822,-879,-1231
-267,-910,-363,708,-812,-1312
-181,-909,-371,637,-797,-1322
-94,-863,-300,603,-870,-1277
-92,-780,-180,543,-938,-1219
-100,-730,-117,416,-929,-1195
-102,-724,-111,279,-922,-1200
-76,-697,-107,148,-865,-1243
3,-713,-162,10,-778,-1314
172,-769,-255,-113,-658,-1388
308,-817,-327,-187,-555,-1423
397,-837,-415,-225,-539,-1359
400,-820,-389,-219,-656,-1234
423,-796,-328,-257,-771,-1144
451,-802,-332,-321,-799,-1079
470,-809,-344,-370,-832,-1008
456,-806,-264,-404,-892,-941
474,-792,-182,-472,-890,-919
535,-782,-144,-590,-809,-925
499,-843,-239,-719,-768,-910
534,-897,-304,-792,-724,-948
633,-899,-298,-845,-583,-1024
627,-926,-371,-937,-417,-1059
758,-955,-470,-1015,-382,-1055
953,-959,-499,-1076,-503,-953
939,-1012,-493,-1156,-577,-794
952,-1065,-421,-1223,-621,-679
976,-1065,-347,-1310,-624,-622
998,-1086,-396,-1452,-526,-607
1049,-1152,-455,-1566,-440,-596
1076,-1223,-556,-1653,-348,-581
1126,-1290,-689,-1714,-208,-591
1225,-1314,-801,-1766,-55,-617
1312,-1387,-981,-1828,16,-569
1353,-1465,-1128,-1836,38,-446
1369,-1518,-1125,-1826,-12,-291
1394,-1557,-1084,-1859,-111,-126
1424,-1611,-1134,-1941,-185,35
1452,-1690,-1274,-2027,-248,182
1390,-1824,-1440,-2062,-221,319
1319,-1902,-1523,-2036,-191,391
1327,-1966,-1639,-2009,-82,397
1294,-2063,-1755,-1964,114,389
1233,-2176,-1908,-1888,262,379
1185,-2219,-1941,-1772,337,345
1270,-2314,-2017,-1696,453,256
1374,-2419,-2105,-1617,636,205
1444,-2512,-2176,-1531,693,247
1513,-2655,-2186,-1430,681,321
1505,-2826,-2151,-1313,688,382
1501,-2949,-2200,-1213,798,392
1508,-3068,-2341,-1105,968,369
1436,-3169,-2460,-968,1065,374
1300,-3234,-2517,-806,1124,387
1227,-3233,-2515,-649,1154,383
1158,-3243,-2519,-509,1199,380
1046,-3234,-2539,-350,1235,394
903,-3183,-2459,-160,1225,413
811,-3112,-2369,9,1216,391
730,-3053,-2302,155,1290,324
622,-2991,-2207,302,1430,223
614,-2924,-2129,428,1566,101
632,-2850,-2039,538,1624,49
620,-2750,-1923,641,1577,53
590,-2651,-1848,711,1576,54
523,-2568,-1822,771,1612,42
493,-2477,-1793,852,1671,6
529,-2392,-1726,949,1684,-22
562,-2294,-1698,1042,1697,-30
581,-2189,-1642,1131,1706,-8
653,-2095,-1535,1198,1662,31
709,-1974,-1454,1240,1659,85
719,-1877,-1392,1254,1680,143
734,-1780,-1363,1266,1722,196
784,-1683,-1295,1281,1724,277
826,-1572,-1175,1282,1643,422
862,-1464,-1112,1253,1453,619
838,-1379,-1084,1229,1297,816
739,-1301,-1066,1223,1169,967
602,-1232,-1052,1237,1145,1014
509,-1165,-969,1273,1204,980
520,-1084,-877,1283,1208,933
599,-1009,-795,1263,1253,899
609,-967,-731,1226,1311,911
624,-915,-652,1188,1320,956
731,-840,-542,1146,1243,1047
757,-797,-444,1066,1136,1221
819,-747,-344,976,931,1453
839,-680,-263,875,654,1714
637,-650,-298,767,595,1904
418,-668,-394,698,625,1947
328,-624,-402,689,744,1868
270,-591,-368,671,913,1793
224,-559,-310,645,972,1768
141,-517,-207,608,960,1791
105,-480,-112,519,875,1836
94,-460,-52,411,755,1911
76,-467,-38,299,603,2004
79,-473,-81,196,509,2086
-39,-505,-77,139,417,2182
-252,-523,-12,96,390,2219
-429,-557,48,24,454,2150
-533,-588,59,-58,550,2026
-617,-615,69,-142,564,1935
-723,-649,87,-227,530,1871
-880,-706,101,-313,527,1780
-1109,-754,77,-420,623,1592
-1135,-839,-67,-538,745,1311
-1013,-936,-125,-590,716,1121
-956,-969,-78,-640,637,1047
-995,-1000,-39,-754,603,1017
-1055,-1080,-140,-913,553,1010
-1115,-1181,-293,-1039,418,1035
-1185,-1228,-357,-1109,294,1045
-1329,-1312,-389,-1173,268,1006
-1500,-1376,-432,-1219,318,907
-1566,-1386,-439,-1265,319,775
-1557,-1438,-501,-1326,283,666
-1582,-1525,-555,-1356,217,616
-1632,-1575,-520,-1355,75,592
-1654,-1583,-456,-1383,-92,564
-1641,-1686,-517,-1462,-164,520
-1682,-1800,-658,-1511,-178,449
-1753,-1884,-842,-1541,-132,343
-1771,-2062,-942,-1512,-188,263
-1738,-2170,-925,-1453,-294,186
-1702,-2290,-987,-1428,-343,126
-1736,-2448,-1048,-1386,-411,105
-1678,-2539,-1044,-1345,-562,75
-1620,-2679,-1100,-1321,-672,68
-1678,-2905,-1181,-1266,-777,70
-1651,-3038,-1267,-1177,-878,1
-1623,-3218,-1341,-1067,-912,-77
-1579,-3387,-1408,-940,-954,-156
-1500,-3480,-1464,-800,-1029,-231
-1520,-3561,-1432,-643,-1134,-273
-1455,-3578,-1349,-518,-1211,-377
-1351,-3596,-1409,-440,-1209,-492
-1321,-3669,-1525,-329,-1259,-551
-1186,-3683,-1518,-160,-1366,-635
-1098,-3658,-1472,-5,-1406,-707
-1055,-3630,-1509,113,-1429,-777
-954,-3563,-1518,235,-1451,-872
-862,-3498,-1529,342,-1363,-968
-788,-3429,-1577,448,-1306,-1030
-705,-3341,-1614,575,-1310,-1055
-624,-3245,-1608,712,-1351,-1058
-548,-3131,-1623,838,-1351,-1064
-504,-3013,-1622,976,-1366,-1065
-465,-2896,-1500,1120,-1382,-1069
-404,-2774,-1359,1215,-1341,-1086
-367,-2642,-1268,1256,-1278,-1098
-419,-2528,-1215,1276,-1176,-1121
-457,-2403,-1158,1304,-1012,-1197
-447,-2294,-1160,1330,-850,-1266
-402,-2197,-1176,1387,-845,-1267
-330,-2049,-1067,1457,-981,-1182
-340,-1894,-877,1480,-1179,-1047
-406,-1760,-718,1419,-1312,-948
-398,-1718,-681,1309,-1354,-930
-370,-1661,-730,1221,-1311,-948
-377,-1595,-726,1177,-1211,-1003
-391,-1520,-704,1141,-1015,-1121
-405,-1489,-716,1096,-781,-1229
-347,-1431,-757,1087,-712,-1282
-309,-1358,-731,1108,-708,-1301
-344,-1291,-708,1124,-635,-1302
-330,-1189,-608,1152,-681,-1286
-289,-1099,-494,1141,-867,-1238
-294,-1032,-415,1078,-971,-1214
-222,-969,-320,987,-1009,-1258
-136,-952,-245,866,-981,-1323
-86,-921,-213,721,-889,-1382
-26,-922,-204,587,-791,-1457
85,-907,-225,468,-680,-1540
203,-883,-277,373,-539,-1595
257,-905,-353,315,-453,-1583
261,-912,-379,328,-537,-1511
325,-854,-273,345,-706,-1448
458,-822,-185,285,-811,-1400
539,-791,-145,196,-825,-1316
534,-750,-146,95,-877,-1206
557,-696,-139,-13,-981,-1111
620,-676,-146,-128,-1086,-1025
692,-668,-122,-222,-1160,-947
674,-672,-105,-319,-1120,-900
644,-714,-195,-434,-1040,-896
655,-749,-286,-490,-998,-915
672,-758,-297,-500,-923,-936
678,-773,-257,-506,-863,-947
749,-755,-131,-542,-801,-977
771,-790,-70,-645,-680,-1013
723,-819,-67,-757,-601,-1030
773,-812,-35,-869,-581,-1064
891,-830,-85,-1011,-584,-1059
959,-860,-156,-1126,-590,-1017
1026,-887,-199,-1220,-578,-994
1105,-966,-279,-1310,-488,-1004
1169,-1056,-411,-1364,-371,-1034
1239,-1102,-499,-1378,-234,-1093
1368,-1167,-521,-1394,-5,-1158
1373,-1216,-502,-1429,99,-1140
1439,-1266,-613,-1522,148,-1122
1581,-1360,-777,-1601,127,-1039
1655,-1404,-830,-1618,-82,-838
1791,-1446,-818,-1654,-284,-608
1792,-1517,-839,-1719,-382,-371
1769,-1578,-926,-1801,-433,-215
1822,-1671,-976,-1855,-447,-138
1901,-1708,-1022,-1906,-380,-115
1937,-1819,-1220,-1975,-171,-122
1970,-1983,-1523,-1969,82,-122
2057,-2066,-1612,-1849,195,-109
2108,-2165,-1670,-1746,274,-60
2151,-2194,-1660,-1645,320,36
2142,-2242,-1682,-1571,368,160
2060,-2295,-1732,-1511,440,266
2007,-2330,-1674,-1429,461,325
2046,-2347,-1600,-1401,532,338
2037,-2418,-1665,-1418,696,355
1950,-2531,-1788,-1392,807,386
1903,-2623,-1897,-1312,912,392
1872,-2736,-1985,-1190,1025,387
1791,-2793,-1963,-1042,1081,391
1682,-2879,-1952,-924,1150,355
1645,-2952,-1961,-813,1305,258
1658,-2994,-2002,-701,1456,165
1659,-3002,-2020,-575,1507,134
1695,-3017,-2060,-441,1512,141
1699,-3020,-2070,-276,1522,187
1595,-2955,-1992,-87,1499,250
1459,-2883,-1860,76,1524,260
1332,-2788,-1730,204,1610,216
1270,-2686,-1614,296,1702,149
1251,-2598,-1545,360,1820,91
1233,-2508,-1481,421,1849,95
1273,-2403,-1433,481,1781,148
1367,-2297,-1388,546,1715,232
1420,-2175,-1348,619,1690,346
1335,-2055,-1288,697,1668,478
1213,-1932,-1208,766,1682,560
1066,-1823,-1181,821,1749,581
917,-1702,-1121,882,1835,532
862,-1587,-1112,923,2036,415
858,-1484,-1085,973,2176,349
838,-1345,-954,1018,2188,351
906,-1213,-781,1010,2151,397
1076,-1079,-622,952,2044,528
1212,-962,-500,850,1908,774
1192,-870,-428,717,1666,1134
1084,-776,-397,592,1387,1478
932,-698,-383,478,1163,1734
807,-630,-353,391,1055,1861
719,-594,-412,316,1091,1891
670,-557,-420,284,1179,1917
645,-448,-343,260,1187,1964
637,-417,-320,205,1152,2023
711,-372,-308,158,1109,2109
689,-326,-267,115,1057,2248
565,-335,-296,55,995,2392
543,-338,-343,23,916,2487
472,-343,-353,16,836,2568
281,-369,-374,8,913,2598
185,-386,-313,9,961,2570
180,-369,-207,-21,952,2542
75,-376,-162,-100,978,2546
-73,-396,-123,-183,978,2552
-181,-423,-76,-263,918,2564
-313,-452,-50,-355,790,2605
-442,-468,-18,-457,657,2630
-625,-500,-7,-584,608,2605
-842,-589,-89,-730,639,2515
-987,-679,-215,-835,665,2372
-1078,-741,-305,-912,682,2225
-1189,-832,-384,-989,661,2127
-1348,-887,-407,-1027,574,2071
-1509,-938,-320,-1063,501,1975
-1650,-1009,-273,-1156,400,1831
-1731,-1074,-261,-1266,380,1638
-1764,-1172,-304,-1395,388,1438
-1836,-1241,-397,-1503,369,1274
-1903,-1303,-513,-1583,321,1127
-1984,-1368,-560,-1634,245,999
-1988,-1431,-578,-1690,187,851
-1953,-1515,-638,-1756,94,727
-1953,-1572,-713,-1816,-22,666
-2026,-1661,-761,-1870,-154,649
-2113,-1787,-835,-1915,-380,628
-2215,-1840,-876,-1939,-531,536
-2361,-1940,-983,-1976,-547,360
-2375,-2074,-1121,-1975,-525,106
-2246,-2205,-1236,-1934,-510,-143
-2131,-2381,-1340,-1887,-554,-314
-1976,-2539,-1444,-1823,-673,-437
-1705,-2661,-1507,-1746,-856,-503
-1598,-2823,-1574,-1647,-960,-518
-1542,-3027,-1728,-1535,-996,-570
-1362,-3220,-1874,-1372,-1012,-662
-1169,-3340,-1939,-1157,-1073,-683
-1109,-3428,-1910,-938,-1192,-615
-1201,-3520,-1776,-752,-1329,-543
-1215,-3637,-1782,-640,-1444,-588
-1103,-3758,-1994,-535,-1421,-737
-1005,-3819,-2132,-334,-1335,-877
-937,-3803,-2049,-77,-1269,-988
-860,-3763,-1985,122,-1236,-1061
-782,-3692,-1965,292,-1258,-1097
-706,-3587,-1950,456,-1287,-1087
-692,-3454,-1918,612,-1420,-1018
-709,-3293,-1872,747,-1523,-996
-716,-3152,-1844,854,-1534,-1023
-700,-3020,-1851,937,-1544,-1074
-604,-2888,-1895,1036,-1486,-1167
-526,-2757,-1869,1168,-1370,-1241
-489,-2639,-1762,1305,-1292,-1281
-381,-2513,-1612,1408,-1272,-1321
-283,-2405,-1538,1457,-1226,-1322
-194,-2313,-1481,1504,-1214,-1266
-112,-2196,-1381,1549,-1226,-1177
-118,-2107,-1311,1568,-1247,-1058
-103,-2027,-1251,1594,-1288,-966
-43,-1933,-1129,1615,-1351,-886
-42,-1847,-968,1601,-1440,-782
-92,-1781,-855,1548,-1453,-729
-127,-1705,-787,1481,-1385,-734
-181,-1611,-727,1413,-1257,-761
-245,-1529,-722,1335,-1169,-786
-315,-1469,-744,1281,-1093,-816
-374,-1404,-783,1247,-1006,-871
-365,-1321,-755,1242,-1014,-929
-341,-1258,-693,1226,-1056,-969
-294,-1168,-565,1194,-1116,-996
-209,-1121,-453,1112,-1103,-1042
-173,-1128,-432,1014,-968,-1083
-143,-1110,-377,952,-878,-1118
-61,-1073,-261,888,-843,-1154
