ax,ay,az,gx,gy,gz
1614,-1638,-1442,-1445,-78,20
1732,-1737,-1559,-1479,90,-3
1777,-1822,-1646,-1452,201,59
1754,-1893,-1703,-1384,266,176
1660,-1916,-1709,-1293,308,277
1495,-1894,-1626,-1213,375,315
1367,-1878,-1550,-1199,511,251
1341,-1918,-1567,-1222,652,157
1326,-2010,-1602,-1209,694,122
1323,-2072,-1593,-1150,666,136
1389,-2104,-1578,-1083,609,196
1443,-2138,-1566,-1022,549,290
1469,-2196,-1595,-978,539,372
1493,-2281,-1694,-925,599,405
1452,-2369,-1795,-835,677,407
1428,-2418,-1854,-719,777,371
1459,-2429,-1877,-591,914,315
1444,-2437,-1880,-469,1051,302
1397,-2496,-1926,-346,1145,313
1365,-2534,-1981,-169,1181,322
1314,-2524,-1979,50,1184,362
1221,-2446,-1894,266,1185,425
1128,-2323,-1769,441,1184,483
1069,-2218,-1637,547,1235,519
972,-2102,-1523,606,1324,539
912,-2020,-1454,645,1383,492
1050,-1962,-1392,685,1467,394
1120,-1793,-1376,728,1598,377
1028,-1654,-1384,762,1587,447
994,-1592,-1382,776,1497,538
1003,-1525,-1384,795,1404,677
958,-1437,-1381,838,1290,872
895,-1332,-1313,879,1184,1050
816,-1200,-1203,884,1153,1142
716,-1089,-1109,828,1240,1119
614,-1053,-1056,720,1394,1014
533,-1044,-1042,610,1516,901
498,-1021,-1036,540,1522,858
469,-999,-1017,501,1404,923
430,-969,-978,462,1252,1048
373,-968,-935,406,1154,1156
284,-996,-913,353,1089,1211
266,-997,-894,329,1004,1231
262,-954,-824,302,941,1250
214,-950,-785,239,900,1252
141,-972,-742,159,916,1171
45,-974,-673,95,967,1104
5,-993,-626,-29,976,978
14,-1025,-630,-165,970,840
68,-1041,-657,-275,914,793
136,-1088,-692,-362,823,803
186,-1085,-687,-411,723,850
170,-1087,-670,-474,636,927
126,-1114,-671,-544,579,954
103,-1139,-674,-602,542,919
73,-1153,-686,-657,507,864
51,-1184,-727,-714,504,789
67,-1209,-752,-768,497,717
114,-1201,-728,-816,459,686
116,-1210,-708,-888,421,695
74,-1274,-765,-983,394,717
29,-1356,-823,-1047,333,745
8,-1429,-876,-1081,236,788
-40,-1488,-927,-1097,105,857
-127,-1565,-979,-1100,-16,924
-177,-1635,-986,-1087,-128,971
-225,-1676,-965,-1069,-238,1009
-290,-1686,-940,-1078,-311,1017
-367,-1740,-941,-1115,-345,968
-429,-1812,-982,-1154,-361,833
-448,-1897,-1074,-1181,-320,618
-396,-2001,-1190,-1193,-258,417
-330,-2119,-1306,-1171,-249,291
-251,-2200,-1362,-1102,-318,252
-202,-2227,-1332,-1014,-442,292
-256,-2257,-1279,-935,-581,371
-353,-2284,-1235,-872,-707,429
-421,-2280,-1219,-817,-833,444
-486,-2279,-1213,-769,-961,412
-480,-2249,-1214,-734,-1030,316
-350,-2230,-1209,-747,-1002,153
-217,-2272,-1274,-807,-869,-66
-72,-2370,-1439,-822,-721,-297
131,-2437,-1582,-749,-652,-420
263,-2447,-1607,-611,-682,-361
231,-2472,-1587,-472,-793,-169
71,-2454,-1555,-327,-976,33
-100,-2405,-1476,-192,-1157,188
-259,-2347,-1420,-97,-1333,289
-441,-2291,-1395,-30,-1470,309
-527,-2269,-1362,0,-1523,210
-312,-2242,-1305,-45,-1388,-69
26,-2289,-1365,-143,-1052,-430
199,-2424,-1519,-173,-788,-677
347,-2493,-1643,-69,-718,-770
522,-2448,-1640,125,-796,-686
531,-2409,-1617,290,-936,-456
539,-2350,-1550,402,-1002,-291
613,-2346,-1494,431,-887,-300
659,-2417,-1543,431,-704,-436
638,-2475,-1631,497,-555,-585
597,-2433,-1629,625,-505,-651
545,-2330,-1536,717,-476,-634
512,-2300,-1509,735,-403,-598
402,-2349,-1560,772,-379,-558
305,-2323,-1580,869,-412,-531
284,-2259,-1557,961,-436,-520
335,-2205,-1522,1010,-436,-484
406,-2106,-1454,1045,-385,-460
331,-2084,-1415,1049,-281,-488
160,-2089,-1389,1053,-153,-563
93,-2017,-1326,1078,-44,-682
156,-1929,-1252,1089,4,-766
208,-1891,-1225,1070,45,-784
218,-1871,-1231,1062,20,-760
238,-1840,-1227,1086,-60,-729
194,-1828,-1229,1098,-118,-685
112,-1827,-1234,1110,-135,-669
97,-1796,-1192,1134,-125,-707
114,-1749,-1133,1142,-98,-755
124,-1737,-1104,1133,-75,-780
122,-1714,-1067,1132,-87,-778
86,-1656,-1006,1144,-145,-752
25,-1584,-919,1127,-191,-736
10,-1526,-853,1071,-168,-766
14,-1476,-834,1012,-164,-798
32,-1439,-823,960,-218,-793
61,-1412,-819,903,-265,-779
80,-1415,-852,858,-313,-768
130,-1363,-827,844,-369,-765
130,-1326,-803,811,-367,-755
124,-1315,-807,761,-369,-745
119,-1287,-798,722,-398,-749
112,-1256,-778,678,-437,-748
113,-1261,-811,610,-440,-751
125,-1268,-842,558,-463,-733
118,-1249,-839,523,-519,-695
118,-1240,-855,477,-552,-680
185,-1230,-855,434,-552,-694
226,-1198,-814,407,-572,-691
227,-1154,-771,373,-597,-686
256,-1122,-744,320,-598,-709
293,-1115,-717,262,-608,-728
247,-1114,-736,186,-610,-730
198,-1136,-764,117,-617,-739
164,-1134,-771,73,-682,-725
153,-1091,-768,26,-810,-678
243,-1080,-754,-56,-886,-653
416,-1107,-754,-166,-852,-688
605,-1107,-798,-244,-766,-770
765,-1102,-796,-282,-681,-853
875,-1099,-800,-316,-624,-865
951,-1085,-764,-333,-657,-784
925,-1071,-686,-368,-725,-654
814,-1076,-667,-443,-781,-535
733,-1108,-686,-535,-831,-441
683,-1175,-702,-618,-903,-364
715,-1223,-751,-699,-934,-359
828,-1218,-770,-775,-908,-438
1051,-1181,-799,-856,-780,-579
1174,-1250,-902,-959,-554,-712
1183,-1330,-1025,-1004,-423,-778
1270,-1282,-1062,-975,-417,-775
1359,-1206,-1035,-964,-446,-702
1348,-1186,-1038,-1010,-435,-609
1307,-1197,-1084,-1069,-410,-555
1390,-1249,-1117,-1133,-374,-543
1547,-1336,-1156,-1206,-304,-518
1635,-1401,-1199,-1253,-242,-457
1661,-1459,-1198,-1265,-172,-416
1658,-1487,-1219,-1283,-54,-442
1662,-1556,-1319,-1301,95,-482
1760,-1638,-1414,-1310,223,-496
1842,-1733,-1464,-1297,311,-427
1856,-1848,-1479,-1264,332,-274
1788,-1959,-1484,-1205,278,-72
1668,-1974,-1420,-1121,182,117
1550,-1919,-1338,-1074,171,183
1424,-1928,-1357,-1109,305,114
1365,-1971,-1441,-1142,489,-26
1413,-2002,-1500,-1123,654,-154
1493,-2034,-1548,-1058,766,-206
1583,-2093,-1590,-955,784,-156
1668,-2165,-1585,-845,733,5
1665,-2257,-1561,-745,646,243
1601,-2308,-1538,-641,563,434
1471,-2341,-1529,-550,543,508
1352,-2360,-1555,-483,651,433
1324,-2397,-1606,-429,862,241
1386,-2433,-1691,-348,1055,66
1466,-2378,-1714,-201,1134,12
1440,-2259,-1636,-46,1138,96
1320,-2140,-1518,70,1146,202
1224,-2051,-1423,151,1164,237
1181,-1993,-1399,205,1157,258
1188,-1956,-1417,236,1144,313
1188,-1936,-1447,267,1147,368
1129,-1918,-1487,325,1158,398
1076,-1870,-1486,416,1187,396
1062,-1799,-1452,504,1212,391
1069,-1758,-1443,583,1223,423
1024,-1664,-1420,667,1223,487
939,-1526,-1332,752,1197,523
947,-1392,-1212,778,1173,515
1023,-1291,-1127,741,1170,518
1026,-1224,-1084,672,1159,567
951,-1186,-1052,595,1152,616
903,-1154,-1046,511,1182,631
931,-1133,-1068,438,1185,653
957,-1114,-1087,402,1131,726
951,-1091,-1097,386,1084,814
954,-1067,-1107,390,1027,889
918,-1010,-1057,419,947,974
857,-908,-940,412,899,1050
800,-856,-835,335,930,1075
718,-888,-847,209,1004,1044
704,-947,-920,107,1019,1008
725,-985,-977,45,979,1040
706,-1005,-977,8,900,1147
669,-996,-947,-15,799,1268
642,-968,-896,-36,704,1361
585,-934,-841,-64,631,1418
502,-884,-801,-104,594,1420
459,-834,-754,-167,613,1365
393,-836,-742,-261,702,1302
360,-887,-732,-371,770,1244
377,-938,-746,-467,765,1192
360,-978,-761,-530,677,1260
272,-1007,-748,-586,553,1385
187,-1032,-730,-654,489,1434
87,-1073,-733,-726,482,1406
-10,-1139,-760,-795,504,1320
-49,-1191,-790,-844,498,1224
-66,-1219,-775,-881,448,1173
-109,-1265,-791,-938,407,1148
-183,-1346,-804,-988,379,1129
-260,-1425,-803,-1011,298,1116
-308,-1470,-801,-1030,159,1129
-376,-1521,-796,-1068,22,1151
-454,-1585,-820,-1121,-85,1136
-516,-1660,-870,-1163,-141,1043
-496,-1747,-944,-1203,-98,862
-412,-1866,-1043,-1218,-38,644
-319,-1966,-1113,-1174,-81,509
-270,-2022,-1113,-1107,-221,516
-279,-2061,-1039,-1063,-377,576
-364,-2134,-1023,-1056,-491,570
-423,-2208,-1075,-1045,-578,470
-418,-2255,-1114,-1021,-609,317
-422,-2289,-1186,-1013,-563,155
-485,-2348,-1290,-981,-553,20
-570,-2414,-1376,-909,-600,-87
-522,-2395,-1376,-826,-696,-165
-402,-2355,-1344,-767,-794,-230
-230,-2376,-1367,-750,-818,-336
42,-2392,-1429,-735,-780,-473
262,-2406,-1480,-673,-765,-538
368,-2425,-1503,-576,-796,-481
329,-2404,-1469,-455,-881,-337
146,-2354,-1395,-345,-985,-199
-35,-2310,-1341,-281,-1070,-153
-118,-2295,-1335,-256,-1114,-217
-61,-2279,-1394,-252,-1120,-341
171,-2286,-1415,-256,-1029,-531
484,-2340,-1520,-264,-807,-774
803,-2396,-1636,-187,-628,-941
1037,-2401,-1670,-49,-536,-929
1191,-2389,-1655,108,-537,-743
1168,-2357,-1586,254,-634,-455
1045,-2347,-1509,357,-723,-220
857,-2316,-1451,444,-760,-114
661,-2300,-1423,484,-701,-125
528,-2328,-1469,481,-587,-207
463,-2343,-1498,503,-511,-302
505,-2338,-1488,531,-424,-411
567,-2365,-1547,568,-302,-520
615,-2361,-1573,658,-249,-575
649,-2300,-1530,757,-219,-557
609,-2265,-1521,826,-207,-475
546,-2241,-1498,909,-240,-393
474,-2192,-1442,991,-273,-344
346,-2145,-1389,1050,-317,-293
204,-2097,-1339,1093,-359,-284
107,-2053,-1276,1110,-371,-348
64,-2032,-1259,1088,-320,-468
85,-2020,-1285,1077,-270,-582
148,-1984,-1292,1085,-278,-647
243,-1914,-1253,1098,-288,-678
321,-1900,-1246,1100,-269,-699
361,-1873,-1231,1124,-274,-689
387,-1801,-1174,1162,-297,-653
367,-1773,-1142,1172,-310,-605
306,-1766,-1143,1175,-323,-573
285,-1735,-1132,1185,-316,-591
314,-1673,-1087,1179,-305,-613
314,-1659,-1089,1129,-280,-637
269,-1699,-1150,1074,-219,-692
262,-1703,-1156,1066,-169,-755
270,-1665,-1108,1080,-170,-763
219,-1618,-1051,1081,-222,-710
163,-1539,-980,1071,-299,-659
158,-1477,-925,1038,-347,-651
137,-1444,-942,991,-376,-651
138,-1374,-932,964,-441,-639
132,-1289,-872,931,-489,-631
110,-1228,-820,869,-485,-657
96,-1179,-778,813,-490,-694
109,-1126,-694,761,-511,-712
99,-1072,-616,687,-556,-699
111,-1025,-578,605,-640,-677
120,-1006,-565,508,-702,-673
93,-996,-592,407,-746,-667
7,-992,-624,327,-809,-668
-21,-1009,-705,253,-836,-729
144,-1042,-793,191,-818,-845
388,-1043,-818,152,-790,-930
539,-1043,-800,125,-754,-946
601,-1054,-796,99,-767,-902
661,-1048,-773,76,-828,-815
619,-1070,-743,37,-885,-710
493,-1073,-736,-14,-929,-644
466,-1028,-690,-67,-955,-667
558,-1014,-696,-175,-938,-723
653,-1049,-780,-307,-872,-773
683,-1092,-890,-400,-792,-837
803,-1093,-925,-435,-752,-903
947,-1085,-949,-457,-727,-903
982,-1076,-980,-470,-765,-816
974,-1054,-948,-478,-823,-730
1044,-1030,-904,-514,-849,-686
1130,-1043,-868,-581,-837,-660
1140,-1086,-849,-660,-800,-643
1124,-1115,-838,-726,-788,-635
1156,-1099,-795,-801,-776,-643
1211,-1100,-788,-916,-711,-676
1311,-1129,-866,-1036,-621,-732
1457,-1191,-1019,-1137,-533,-771
1579,-1308,-1228,-1197,-481,-724
1701,-1431,-1374,-1181,-461,-596
1800,-1513,-1390,-1115,-421,-465
1850,-1527,-1317,-1052,-355,-363
1837,-1533,-1214,-1020,-290,-278
1795,-1571,-1164,-1039,-217,-215
1755,-1588,-1166,-1079,-146,-187
1746,-1590,-1189,-1130,-67,-191
1717,-1656,-1279,-1199,82,-222
1716,-1729,-1404,-1217,230,-261
1796,-1776,-1498,-1177,307,-264
1884,-1797,-1595,-1119,308,-155
1887,-1848,-1666,-1051,324,21
1831,-1860,-1648,-947,350,147
1680,-1792,-1527,-830,381,200
1494,-1748,-1401,-792,500,177
1385,-1747,-1343,-820,653,103
1391,-1756,-1270,-831,741,33
1437,-1799,-1225,-839,783,26
1458,-1876,-1241,-843,736,118
1476,-1944,-1288,-815,609,268
1480,-2022,-1385,-779,519,392
1478,-2130,-1525,-731,535,408
1486,-2231,-1650,-639,659,319
1490,-2264,-1702,-516,811,193
1560,-2279,-1703,-373,955,94
1614,-2255,-1676,-219,1030,83
1578,-2178,-1581,-76,1036,166
1458,-2121,-1460,21,1032,272
1355,-2058,-1389,69,1048,338
1256,-2015,-1388,91,1106,339
1195,-2007,-1424,113,1156,314
1152,-1991,-1461,154,1178,320
1099,-1958,-1509,209,1162,364
1072,-1903,-1545,295,1129,387
1062,-1861,-1577,326,1163,368
1153,-1822,-1593,360,1241,341
1216,-1769,-1562,436,1299,360
1162,-1682,-1485,518,1306,436
1136,-1553,-1365,584,1306,504
1123,-1437,-1258,594,1311,573
1078,-1356,-1214,576,1303,654
1064,-1277,-1155,577,1263,725
1050,-1190,-1085,568,1220,804
985,-1124,-1025,541,1170,895
897,-1081,-964,503,1136,954
784,-1069,-950,445,1147,958
735,-1054,-945,396,1145,937
735,-1040,-926,356,1137,913
757,-1038,-928,311,1117,915
773,-1037,-923,271,1106,923
709,-1050,-932,241,1082,935
677,-1028,-912,221,1009,959
730,-968,-824,176,974,992
691,-958,-791,87,1001,1003
600,-996,-816,12,998,982
618,-974,-797,-23,944,957
658,-923,-744,-67,875,975
632,-912,-724,-142,822,1015
604,-915,-715,-210,768,1030
608,-918,-724,-258,723,1022
573,-942,-732,-311,701,1011
522,-961,-728,-357,655,1014
463,-967,-704,-401,581,1034
428,-972,-688,-459,524,1069
402,-948,-648,-533,489,1084
377,-941,-640,-622,478,1054
365,-986,-673,-724,495,998
417,-1027,-730,-820,525,937
481,-1080,-790,-887,523,913
462,-1129,-824,-921,470,951
359,-1155,-827,-938,386,1024
233,-1172,-807,-963,301,1088
111,-1193,-767,-1010,232,1109
-9,-1229,-771,-1082,171,1094
-133,-1295,-802,-1165,105,1066
-240,-1383,-868,-1252,68,992
-270,-1472,-935,-1310,41,857
-142,-1516,-940,-1346,44,691
-13,-1619,-990,-1387,84,540
46,-1739,-1081,-1389,41,480
67,-1797,-1114,-1344,-110,538
41,-1870,-1148,-1318,-268,643
-21,-1985,-1225,-1303,-369,691
-110,-2092,-1308,-1251,-431,656
-220,-2227,-1405,-1196,-431,570
-341,-2382,-1515,-1141,-434,475
-513,-2495,-1566,-1050,-495,395
-738,-2548,-1538,-946,-574,287
-903,-2576,-1515,-857,-643,101
-944,-2551,-1483,-752,-720,-122
-817,-2483,-1418,-656,-827,-323
-388,-2387,-1332,-610,-895,-525
129,-2353,-1282,-614,-859,-709
531,-2373,-1323,-612,-808,-820
897,-2381,-1376,-551,-824,-792
1060,-2395,-1402,-464,-902,-594
978,-2420,-1437,-383,-988,-364
763,-2438,-1460,-284,-1037,-217
494,-2465,-1494,-189,-1066,-163
212,-2454,-1517,-92,-1090,-158
3,-2411,-1521,-16,-1116,-194
-87,-2363,-1513,30,-1129,-306
49,-2312,-1533,51,-1024,-544
487,-2293,-1581,75,-823,-840
950,-2291,-1640,151,-677,-990
1218,-2278,-1655,283,-620,-934
1332,-2221,-1609,432,-644,-716
1300,-2134,-1464,572,-762,-389
1160,-2069,-1320,653,-852,-124
975,-2070,-1283,664,-816,-36
768,-2117,-1318,666,-729,-50
590,-2131,-1366,682,-679,-90
550,-2122,-1403,693,-644,-151
748,-2122,-1417,679,-506,-275
954,-2186,-1498,676,-292,-416
998,-2252,-1608,744,-184,-440
1037,-2210,-1629,870,-192,-344
1021,-2156,-1569,986,-274,-158
916,-2106,-1468,1055,-309,0
735,-2103,-1410,1089,-249,32
480,-2109,-1404,1119,-219,-1
315,-2070,-1374,1145,-197,-73
216,-2033,-1351,1146,-164,-160
143,-2008,-1343,1150,-162,-262
124,-1956,-1309,1165,-161,-375
125,-1885,-1267,1170,-172,-452
154,-1819,-1213,1163,-206,-495
276,-1761,-1149,1138,-200,-565
379,-1760,-1153,1115,-186,-619
438,-1743,-1173,1142,-228,-610
483,-1682,-1121,1173,-289,-555
456,-1621,-1050,1177,-334,-495
405,-1565,-1021,1149,-310,-496
369,-1542,-1008,1106,-263,-542
318,-1546,-1019,1060,-227,-608
323,-1537,-1046,1024,-189,-668
374,-1514,-1030,1003,-201,-679
427,-1478,-952,981,-230,-652
401,-1458,-893,946,-251,-618
335,-1435,-856,914,-314,-583
307,-1392,-821,877,-385,-567
298,-1359,-823,818,-426,-563
262,-1347,-864,767,-454,-567
221,-1328,-888,731,-474,-570
168,-1306,-908,701,-496,-578
124,-1291,-936,667,-511,-611
131,-1242,-959,656,-518,-654
120,-1165,-895,651,-532,-678
80,-1089,-817,616,-560,-696
76,-1056,-789,542,-590,-740
111,-1051,-796,453,-602,-798
168,-1031,-800,388,-623,-846
174,-1001,-769,337,-671,-861
164,-952,-729,283,-752,-849
188,-912,-684,214,-857,-828
303,-864,-666,111,-949,-813
479,-893,-724,-20,-964,-835
609,-964,-815,-120,-936,-883
741,-976,-860,-173,-879,-932
854,-993,-881,-219,-814,-933
914,-1012,-855,-244,-816,-868
912,-1027,-830,-268,-849,-769
867,-1036,-791,-300,-909,-652
836,-1038,-764,-349,-967,-556
921,-1031,-758,-430,-981,-531
1065,-1059,-782,-525,-920,-561
1159,-1109,-848,-602,-825,-608
1263,-1123,-899,-644,-755,-631
1398,-1129,-928,-677,-715,-593
1495,-1129,-935,-704,-684,-501
1515,-1100,-908,-717,-654,-398
1462,-1095,-888,-753,-607,-308
1419,-1090,-881,-795,-573,-234
1507,-1090,-854,-852,-524,-165
1604,-1140,-841,-952,-472,-50
1596,-1254,-852,-1048,-457,99
1577,-1352,-891,-1122,-459,225
1572,-1412,-955,-1178,-461,335
1546,-1491,-1042,-1234,-458,437
1467,-1609,-1175,-1279,-407,502
1353,-1740,-1331,-1277,-325,505
1273,-1788,-1434,-1221,-238,461
1184,-1786,-1434,-1156,-130,381
1133,-1788,-1400,-1118,-1,269
1166,-1797,-1373,-1089,120,140
1219,-1827,-1361,-1056,193,59
1333,-1822,-1353,-1023,196,62
1421,-1829,-1327,-1005,174,131
1413,-1852,-1329,-1002,181,209
1451,-1859,-1294,-984,231,222
1504,-1868,-1263,-965,308,184
1469,-1920,-1264,-965,402,147
1434,-2068,-1383,-996,492,121
1480,-2236,-1573,-1009,522,116
1537,-2425,-1809,-976,577,108
1569,-2630,-2062,-878,681,87
1565,-2729,-2175,-685,785,72
1556,-2688,-2132,-457,873,86
1522,-2573,-1991,-257,931,143
1420,-2469,-1843,-115,961,215
1301,-2380,-1725,-12,980,256
1234,-2293,-1627,63,1014,245
1181,-2222,-1546,111,1086,208
1147,-2155,-1510,146,1147,177
1158,-2080,-1475,184,1160,171
1175,-2031,-1464,215,1148,198
1144,-2023,-1525,256,1143,224
1112,-2011,-1605,345,1156,217
1128,-1918,-1586,466,1168,213
1190,-1777,-1480,551,1189,257
1212,-1698,-1411,578,1251,307
1118,-1624,-1379,587,1333,352
978,-1587,-1378,602,1357,428
894,-1508,-1353,620,1310,545
819,-1420,-1276,617,1255,681
696,-1403,-1263,586,1233,744
636,-1394,-1284,577,1225,732
675,-1347,-1282,592,1197,727
715,-1306,-1274,595,1159,769
745,-1253,-1257,592,1148,805
780,-1191,-1195,596,1151,821
731,-1146,-1146,596,1132,849
653,-1075,-1076,586,1083,889
578,-1016,-996,544,1067,930
473,-1005,-958,496,1022,998
395,-993,-925,452,920,1062
368,-972,-874,392,859,1063
404,-965,-831,319,831,1045
404,-1002,-848,235,837,1010
391,-1018,-859,205,774,1008
445,-967,-798,197,671,1055
562,-901,-734,144,614,1113
575,-846,-680,72,577,1161
384,-863,-648,-25,618,1140
206,-934,-687,-152,742,1009
148,-1005,-714,-243,786,881
99,-1051,-732,-305,714,837
31,-1100,-765,-356,583,868
8,-1137,-779,-397,432,920
101,-1123,-766,-440,320,941
198,-1117,-748,-503,282,925
223,-1136,-754,-565,291,891
262,-1133,-748,-616,316,834
297,-1116,-717,-669,329,790
248,-1147,-706,-744,344,779
167,-1233,-730,-829,349,790
68,-1347,-776,-895,278,824
-32,-1463,-817,-933,125,907
-107,-1553,-844,-963,-37,1000
-147,-1614,-863,-994,-149,1028
-175,-1679,-880,-1029,-180,951
-191,-1737,-924,-1058,-141,775
-125,-1766,-968,-1064,-85,571
-17,-1764,-955,-1062,-49,417
28,-1776,-951,-1081,-26,335
18,-1823,-979,-1100,-43,295
-1,-1869,-1010,-1104,-141,304
-69,-1929,-1078,-1112,-259,348
-149,-2028,-1127,-1118,-346,368
-163,-2097,-1158,-1110,-381,302
-129,-2170,-1232,-1079,-397,186
-60,-2226,-1310,-1009,-436,102
-14,-2228,-1316,-926,-478,68
-34,-2211,-1285,-855,-528,53
-56,-2211,-1266,-795,-586,32
-63,-2247,-1279,-759,-647,13
-119,-2301,-1300,-726,-709,4
-195,-2347,-1324,-682,-786,-13
-139,-2388,-1341,-647,-854,-67
85,-2418,-1347,-630,-854,-173
320,-2467,-1428,-612,-782,-302
538,-2549,-1548,-540,-707,-384
683,-2600,-1626,-402,-701,-341
699,-2581,-1584,-227,-770,-180
592,-2532,-1489,-80,-854,-35
355,-2522,-1415,18,-894,52
89,-2519,-1396,85,-927,65
-111,-2521,-1398,140,-952,-16
-264,-2502,-1407,185,-975,-130
-317,-2452,-1406,228,-1017,-261
-139,-2380,-1401,238,-974,-466
239,-2386,-1467,229,-820,-722
642,-2398,-1577,284,-683,-899
942,-2378,-1635,412,-627,-914
1109,-2329,-1594,554,-637,-775
1172,-2261,-1499,677,-662,-572
1046,-2230,-1439,762,-675,-391
808,-2242,-1418,814,-627,-312
628,-2248,-1431,865,-534,-360
543,-2205,-1415,927,-494,-416
462,-2135,-1380,976,-484,-414
376,-2087,-1353,998,-440,-429
414,-2047,-1315,1013,-366,-512
500,-1993,-1275,1042,-330,-572
542,-1944,-1242,1068,-342,-548
543,-1907,-1225,1078,-375,-470
526,-1872,-1206,1088,-426,-397
489,-1862,-1215,1075,-424,-382
426,-1874,-1284,1042,-371,-429
380,-1875,-1334,1043,-317,-510
396,-1845,-1343,1053,-236,-604
379,-1841,-1375,1060,-146,-684
381,-1823,-1376,1091,-87,-737
362,-1774,-1325,1137,-86,-722
255,-1718,-1245,1165,-138,-650
147,-1668,-1156,1165,-211,-590
94,-1593,-1099,1139,-274,-579
95,-1526,-1066,1085,-305,-610
92,-1480,-1051,1010,-306,-653
72,-1438,-1050,943,-304,-712
121,-1376,-1027,891,-305,-782
200,-1347,-1027,844,-303,-819
256,-1342,-1047,821,-322,-821
288,-1293,-994,835,-379,-797
319,-1222,-911,836,-435,-756
311,-1182,-857,792,-474,-697
229,-1159,-809,736,-511,-640
144,-1144,-781,667,-530,-646
127,-1120,-744,599,-529,-704
76,-1128,-734,518,-502,-766
52,-1150,-773,441,-506,-809
118,-1142,-788,395,-580,-806
201,-1083,-769,347,-672,-755
301,-1039,-751,267,-699,-736
378,-1068,-782,165,-625,-800
440,-1086,-846,107,-539,-896
524,-1065,-847,92,-519,-932
586,-1038,-807,69,-544,-869
635,-997,-751,28,-601,-778
608,-994,-739,-39,-672,-689
555,-1048,-803,-123,-727,-613
545,-1104,-853,-182,-779,-557
565,-1126,-867,-214,-857,-513
594,-1125,-846,-260,-916,-482
686,-1112,-821,-334,-912,-491
826,-1110,-817,-422,-830,-562
951,-1129,-849,-511,-700,-659
1060,-1158,-879,-570,-603,-717
1166,-1178,-898,-610,-577,-690
1220,-1179,-902,-640,-605,-582
1211,-1165,-887,-673,-655,-451
1203,-1153,-872,-725,-688,-365
1241,-1162,-894,-802,-667,-333
1311,-1195,-920,-877,-599,-339
1424,-1213,-926,-945,-498,-376
1548,-1243,-945,-1006,-390,-396
1632,-1301,-963,-1056,-304,-355
1707,-1368,-996,-1087,-264,-258
1813,-1409,-1014,-1095,-258,-133
1873,-1452,-1057,-1103,-242,10
1861,-1495,-1111,-1129,-200,147
1824,-1561,-1187,-1164,-128,254
1765,-1677,-1314,-1196,-35,336
1738,-1780,-1412,-1194,74,382
1735,-1850,-1469,-1160,225,387
1710,-1921,-1496,-1108,381,403
1653,-1951,-1471,-1034,484,465
1589,-1939,-1398,-961,552,548
1540,-1927,-1312,-901,605,625
1502,-1941,-1230,-852,668,684
1463,-2024,-1231,-816,718,753
1393,-2128,-1309,-764,692,861
1307,-2182,-1358,-694,651,972
1210,-2251,-1423,-656,667,1011
1132,-2393,-1598,-643,770,943
1120,-2561,-1795,-584,927,804
1150,-2711,-1979,-432,1073,655
1219,-2781,-2127,-197,1158,595
1269,-2670,-2048,103,1153,668
1197,-2492,-1795,346,1145,773
1000,-2344,-1602,469,1177,834
899,-2181,-1404,538,1213,822
890,-2037,-1269,530,1318,744
824,-1979,-1269,478,1397,662
830,-1914,-1293,462,1372,622
866,-1830,-1272,462,1320,643
834,-1736,-1268,442,1301,693
750,-1702,-1300,427,1292,724
718,-1684,-1340,442,1301,702
680,-1621,-1346,485,1321,667
575,-1552,-1303,517,1319,675
496,-1504,-1251,516,1297,705
482,-1454,-1242,495,1255,754
478,-1432,-1232,465,1210,796
464,-1390,-1212,448,1167,836
385,-1346,-1163,437,1127,867
296,-1320,-1140,415,1085,878
228,-1284,-1099,399,1011,898
131,-1243,-1040,374,932,914
74,-1191,-974,323,900,872
49,-1172,-925,250,919,768
32,-1185,-927,175,931,658
139,-1176,-920,124,876,612
286,-1142,-905,79,769,666
313,-1148,-913,40,646,776
294,-1130,-912,33,524,879
290,-1041,-830,34,398,965
175,-949,-694,-30,358,997
4,-973,-648,-191,507,849
-69,-1083,-735,-338,654,597
10,-1099,-766,-399,643,434
165,-1096,-761,-472,595,421
206,-1168,-828,-559,532,514
167,-1215,-864,-587,396,632
189,-1203,-843,-602,276,729
177,-1204,-809,-640,192,817
65,-1214,-791,-695,123,887
-46,-1252,-796,-757,74,895
-171,-1301,-810,-826,60,849
-271,-1400,-840,-908,78,745
-312,-1502,-880,-976,98,602
-308,-1602,-947,-1005,89,467
-199,-1664,-978,-1007,12,406
-115,-1679,-976,-1002,-87,421
-132,-1722,-976,-999,-174,443
-128,-1705,-942,-987,-226,403
-125,-1700,-900,-1000,-223,313
-138,-1768,-959,-1051,-178,183
-61,-1849,-1043,-1076,-168,72
9,-1918,-1118,-1068,-226,56
25,-1982,-1169,-1054,-318,93
-13,-2057,-1203,-1026,-398,117
-106,-2123,-1238,-988,-461,114
-174,-2176,-1279,-943,-523,79
-217,-2194,-1302,-895,-589,34
-315,-2218,-1316,-856,-630,-32
-330,-2256,-1357,-823,-634,-156
-209,-2299,-1437,-779,-642,-300
-6,-2335,-1493,-708,-681,-405
270,-2342,-1518,-641,-679,-472
459,-2400,-1566,-579,-653,-476
538,-2459,-1588,-477,-668,-403
522,-2445,-1539,-335,-734,-288
391,-2402,-1445,-215,-807,-165
210,-2389,-1387,-149,-854,-88
68,-2390,-1376,-98,-898,-83
-75,-2400,-1403,-46,-943,-111
-250,-2412,-1463,-3,-967,-167
-351,-2397,-1488,54,-1018,-254
-255,-2338,-1465,105,-1019,-410
152,-2303,-1432,106,-872,-670
606,-2371,-1523,107,-649,-926
894,-2430,-1636,222,-559,-977
1067,-2384,-1594,388,-584,-801
1160,-2322,-1481,534,-667,-542
1097,-2273,-1373,633,-697,-325
966,-2271,-1341,680,-642,-231
850,-2286,-1370,725,-575,-227
762,-2284,-1430,769,-516,-216
633,-2277,-1438,825,-471,-190
450,-2260,-1412,888,-427,-212
384,-2216,-1372,940,-400,-276
374,-2173,-1322,975,-396,-312
355,-2145,-1321,989,-398,-330
378,-2138,-1365,1003,-394,-364
393,-2118,-1413,1031,-399,-395
337,-2103,-1439,1065,-389,-419
264,-2066,-1438,1102,-370,-463
207,-1980,-1401,1138,-343,-538
188,-1919,-1382,1137,-263,-655
215,-1915,-1412,1128,-189,-759
229,-1885,-1406,1149,-185,-796
255,-1822,-1354,1163,-203,-806
246,-1768,-1298,1156,-189,-834
220,-1732,-1294,1136,-147,-883
252,-1674,-1279,1139,-163,-900
293,-1594,-1229,1146,-221,-859
270,-1521,-1175,1136,-282,-793
253,-1453,-1101,1122,-324,-746
233,-1377,-1017,1092,-367,-699
134,-1309,-941,1047,-429,-644
25,-1247,-883,978,-479,-645
-43,-1225,-862,882,-471,-715
-98,-1224,-883,794,-446,-812
-104,-1212,-891,735,-455,-898
-78,-1204,-926,679,-511,-926
-64,-1208,-963,625,-591,-898
-60,-1203,-981,594,-673,-860
-12,-1180,-963,581,-744,-854
80,-1184,-905,555,-743,-917
186,-1137,-868,512,-702,-970
187,-1131,-829,473,-694,-931
123,-1060,-754,439,-762,-894
100,-970,-686,376,-791,-918
84,-911,-662,270,-817,-943
97,-886,-687,144,-849,-990
246,-903,-762,21,-853,-1078
486,-937,-892,-66,-851,-1137
758,-967,-1032,-103,-856,-1124
1006,-989,-1095,-107,-837,-1044
1100,-975,-1053,-89,-820,-909
1056,-932,-957,-69,-793,-814
1068,-845,-837,-88,-727,-807
1092,-812,-758,-181,-658,-784
1095,-843,-774,-298,-623,-745
1131,-891,-833,-405,-602,-715
1216,-917,-872,-483,-618,-645
1252,-955,-899,-552,-644,-532
1236,-1020,-937,-605,-659,-411
1308,-1042,-908,-637,-667,-318
1376,-1053,-844,-681,-637,-255
1341,-1078,-822,-741,-573,-219
1313,-1106,-819,-810,-488,-230
1369,-1128,-843,-894,-409,-247
1423,-1144,-880,-977,-372,-212
1490,-1180,-928,-1057,-345,-152
1596,-1244,-1003,-1129,-324,-66
1677,-1336,-1094,-1171,-331,62
1758,-1402,-1164,-1176,-344,207
1826,-1473,-1227,-1153,-313,340
1788,-1528,-1258,-1121,-227,448
1609,-1594,-1249,-1099,-87,495
1449,-1685,-1274,-1109,95,420
1422,-1757,-1350,-1133,244,320
1429,-1865,-1473,-1155,286,334
1441,-1987,-1614,-1157,267,429
1403,-2108,-1698,-1118,266,545
1350,-2182,-1712,-1036,274,628
1327,-2221,-1699,-939,324,658
1321,-2285,-1681,-850,418,664
1346,-2319,-1653,-752,524,657
1334,-2325,-1578,-659,634,625
1292,-2342,-1547,-605,778,547
1290,-2382,-1573,-560,890,488
1274,-2425,-1593,-505,907,530
1176,-2479,-1655,-448,881,617
1043,-2544,-1708,-365,876,662
919,-2584,-1710,-242,893,644
832,-2591,-1697,-96,900,591
785,-2590,-1705,65,888,527
726,-2567,-1727,242,834,494
710,-2451,-1668,422,755,469
787,-2241,-1488,549,801,373
865,-2099,-1367,566,979,216
923,-2036,-1364,544,1143,94
995,-1972,-1387,570,1190,74
1061,-1858,-1350,620,1153,159
1044,-1743,-1286,652,1105,288
968,-1655,-1240,667,1054,398
925,-1558,-1188,684,1002,471
853,-1491,-1173,673,1021,525
726,-1455,-1183,660,1021,565
577,-1420,-1166,633,1057,535
511,-1402,-1136,581,1181,404
588,-1392,-1156,526,1271,268
684,-1362,-1181,504,1241,267
655,-1348,-1163,487,1160,411
547,-1342,-1146,466,1054,574
446,-1324,-1110,474,939,673
443,-1256,-1055,488,834,730
460,-1170,-970,476,736,794
352,-1120,-881,423,703,835
282,-1115,-855,341,735,785
302,-1126,-864,269,750,754
359,-1148,-899,189,684,736
396,-1148,-921,136,675,721
431,-1140,-897,101,660,748
483,-1099,-841,86,566,814
478,-1079,-824,51,493,900
412,-1081,-834,18,405,985
334,-1047,-801,5,282,1064
245,-985,-712,-39,223,1106
199,-938,-650,-159,286,1067
131,-1020,-663,-327,421,964
54,-1124,-739,-393,469,844
29,-1173,-787,-436,430,762
39,-1189,-777,-465,339,766
65,-1188,-754,-510,249,821
102,-1179,-748,-571,170,875
58,-1180,-734,-628,105,908
-1,-1211,-758,-706,113,880
-5,-1271,-780,-780,148,796
-3,-1339,-813,-830,181,689
35,-1396,-820,-878,218,601
81,-1467,-846,-922,243,549
97,-1513,-885,-942,191,554
79,-1544,-905,-945,99,607
65,-1543,-884,-961,13,654
71,-1545,-873,-998,-25,650
146,-1548,-890,-1054,-1,588
171,-1627,-967,-1120,100,499
143,-1776,-1087,-1150,153,432
171,-1886,-1157,-1121,115,423
211,-1930,-1178,-1068,-2,474
126,-1994,-1207,-1034,-66,519
-33,-2072,-1236,-992,-94,512
-167,-2097,-1230,-918,-170,449
-225,-2071,-1196,-867,-234,371
-297,-2056,-1180,-863,-282,343
-471,-2116,-1233,-874,-337,312
-596,-2206,-1335,-860,-386,189
-479,-2242,-1402,-823,-435,18
-327,-2275,-1461,-790,-460,-120
-140,-2317,-1522,-737,-491,-216
28,-2318,-1524,-656,-527,-274
114,-2295,-1506,-571,-560,-278
150,-2283,-1478,-486,-605,-256
108,-2274,-1443,-410,-657,-221
-41,-2241,-1404,-338,-763,-156
-232,-2193,-1364,-298,-862,-133
-401,-2172,-1357,-285,-911,-192
-476,-2168,-1402,-280,-937,-325
-479,-2166,-1461,-263,-933,-490
-460,-2151,-1523,-227,-960,-629
-219,-2093,-1504,-192,-957,-783
214,-2037,-1487,-184,-866,-961
558,-2049,-1518,-159,-785,-1032
767,-2074,-1532,-105,-745,-979
913,-2109,-1535,-28,-766,-828
953,-2111,-1486,89,-896,-562
858,-2151,-1456,145,-935,-410
784,-2276,-1570,139,-793,-453
789,-2390,-1705,181,-664,-549
733,-2461,-1786,276,-593,-573
694,-2498,-1838,391,-546,-561
706,-2484,-1840,524,-497,-572
712,-2407,-1772,653,-481,-541
679,-2362,-1706,741,-487,-461
622,-2332,-1675,806,-529,-375
560,-2293,-1672,859,-519,-372
494,-2244,-1656,908,-428,-448
468,-2193,-1638,950,-293,-556
493,-2148,-1612,1000,-207,-636
563,-2092,-1586,1057,-183,-662
617,-2046,-1566,1122,-211,-631
611,-2005,-1515,1189,-248,-569
551,-1944,-1447,1249,-263,-531
484,-1894,-1349,1294,-247,-541
425,-1838,-1249,1316,-202,-595
394,-1768,-1181,1309,-135,-671
371,-1723,-1135,1284,-86,-724
366,-1676,-1108,1261,-77,-744
370,-1594,-1047,1240,-111,-725
332,-1517,-961,1192,-133,-684
251,-1478,-902,1123,-153,-649
213,-1448,-868,1061,-213,-640
210,-1405,-851,1011,-288,-646
192,-1380,-887,955,-332,-653
166,-1391,-965,916,-358,-662
118,-1407,-1031,920,-379,-680
68,-1341,-1012,944,-386,-715
29,-1245,-941,957,-382,-773
27,-1130,-837,928,-387,-833
42,-1045,-777,846,-374,-883
102,-1007,-783,741,-418,-886
221,-980,-790,645,-506,-845
294,-952,-825,563,-568,-801
314,-929,-848,506,-596,-782
355,-911,-868,448,-583,-785
368,-916,-905,385,-576,-771
334,-893,-905,342,-576,-763
318,-821,-841,296,-554,-799
344,-789,-819,211,-513,-858
462,-767,-853,114,-518,-871
642,-761,-859,14,-541,-817
737,-795,-853,-80,-548,-727
763,-815,-828,-147,-577,-633
746,-833,-818,-215,-624,-522
702,-865,-814,-297,-660,-412
677,-905,-808,-379,-665,-353
586,-974,-821,-451,-668,-320
533,-1034,-839,-524,-681,-304
