ax,ay,az,gx,gy,gz
1956,-1646,-600,-227,435,465
1617,-1574,-594,-183,544,510
1310,-1559,-674,-199,702,425
1141,-1537,-755,-194,810,346
1058,-1382,-720,-148,798,301
1080,-1183,-556,-153,781,229
1248,-986,-409,-271,895,128
1519,-843,-307,-455,1091,17
1858,-764,-282,-670,1314,-61
2143,-786,-352,-874,1502,-42
2281,-886,-522,-1011,1580,141
2333,-975,-759,-1048,1448,519
2288,-1030,-943,-964,1063,1082
2011,-1038,-924,-818,605,1714
1549,-1046,-946,-747,287,2184
1240,-1070,-976,-749,118,2367
1092,-1150,-957,-841,244,2281
790,-1352,-977,-994,700,2018
324,-1635,-1070,-1156,1272,1606
3,-1901,-1195,-1283,1755,1130
-186,-2161,-1280,-1330,2034,757
-339,-2394,-1340,-1288,2077,585
-421,-2486,-1321,-1168,1924,591
-561,-2580,-1284,-1030,1642,666
-727,-2694,-1341,-930,1340,726
-862,-2745,-1367,-784,1026,760
-1070,-2769,-1335,-616,752,728
-1315,-2771,-1357,-526,635,568
-1281,-2700,-1368,-489,693,242
-1014,-2703,-1334,-466,842,-139
-825,-2739,-1343,-430,883,-385
-723,-2712,-1396,-357,762,-486
-558,-2725,-1355,-256,572,-504
-386,-2788,-1347,-180,350,-417
-274,-2886,-1376,-70,29,-191
-314,-2938,-1346,117,-362,112
-487,-2899,-1251,299,-703,354
-695,-2798,-1119,438,-889,426
-832,-2715,-932,506,-896,260
-852,-2666,-836,473,-671,-124
-672,-2693,-899,390,-335,-591
-253,-2769,-1033,367,-108,-960
132,-2850,-1156,438,-73,-1074
391,-2905,-1229,551,-156,-929
582,-2899,-1277,713,-329,-681
722,-2811,-1220,907,-473,-467
657,-2762,-1169,1047,-512,-352
511,-2705,-1153,1177,-561,-387
514,-2577,-1103,1327,-538,-604
699,-2443,-1071,1416,-391,-880
912,-2336,-1057,1445,-242,-1040
1064,-2242,-1026,1468,-126,-1053
1131,-2146,-951,1519,-119,-974
1067,-2038,-805,1577,-207,-829
944,-1918,-699,1594,-317,-679
842,-1811,-655,1569,-492,-545
832,-1681,-531,1512,-703,-456
893,-1615,-436,1362,-764,-482
946,-1686,-589,1135,-646,-567
1081,-1721,-779,1009,-564,-657
1264,-1692,-834,1007,-513,-727
1369,-1679,-903,1019,-392,-735
1276,-1692,-977,1047,-265,-631
1113,-1689,-1008,1130,-259,-476
1047,-1632,-931,1248,-321,-388
1070,-1534,-813,1354,-348,-379
1192,-1422,-648,1408,-311,-398
1232,-1357,-507,1398,-224,-387
1179,-1305,-424,1353,-111,-364
1080,-1258,-334,1313,-14,-378
1060,-1168,-212,1280,65,-457
1153,-1051,-99,1237,124,-533
1212,-951,50,1156,161,-538
1147,-899,164,1001,274,-516
1087,-880,187,827,332,-513
1078,-896,167,664,293,-503
985,-1003,80,525,208,-440
989,-977,26,468,81,-402
1020,-991,15,373,11,-363
987,-1099,-112,349,131,-391
1129,-1059,-54,402,28,-433
1279,-988,100,408,-15,-370
1442,-962,244,330,52,-261
1560,-985,365,218,100,-130
1683,-1027,482,85,165,-17
1915,-1040,549,-76,359,10
1956,-996,328,-263,501,24
1888,-1023,141,-307,360,21
2013,-1148,47,-349,300,-66
2271,-1226,-72,-411,362,-77
2420,-1263,-150,-393,423,19
2312,-1350,-230,-385,570,163
2061,-1467,-334,-352,706,285
1899,-1454,-301,-234,694,348
1868,-1351,-143,-143,602,440
1837,-1272,4,-186,574,601
1779,-1266,75,-298,614,773
1736,-1224,140,-378,627,896
1583,-1270,149,-480,645,972
1380,-1415,38,-628,827,962
1277,-1543,-158,-739,1091,887
1291,-1621,-288,-752,1190,871
1220,-1668,-337,-729,1186,960
1068,-1724,-357,-722,1203,1068
916,-1816,-337,-706,1243,1112
772,-1891,-308,-644,1256,1089
725,-1896,-234,-563,1242,1039
608,-1932,-166,-498,1213,1015
450,-1955,-115,-432,1157,999
450,-1918,-39,-374,1078,944
425,-1884,36,-330,954,914
303,-1823,79,-327,829,919
134,-1817,45,-410,749,880
48,-1875,-60,-554,752,771
67,-2021,-242,-684,871,623
123,-2145,-454,-722,1012,477
150,-2226,-606,-642,1049,396
109,-2291,-677,-487,949,409
34,-2264,-622,-317,837,485
-68,-2175,-455,-177,673,563
-241,-2105,-289,-117,487,573
-416,-2112,-280,-160,391,483
-477,-2152,-354,-234,397,344
-497,-2237,-446,-298,460,205
-521,-2304,-555,-335,536,98
-477,-2312,-598,-289,489,18
-449,-2334,-569,-193,350,-15
-534,-2328,-555,-93,176,15
-739,-2289,-524,16,-61,63
-912,-2231,-453,119,-325,37
-997,-2119,-365,215,-516,-78
-1024,-2004,-279,253,-610,-262
-966,-1928,-226,213,-614,-505
-766,-1833,-229,126,-583,-787
-466,-1741,-303,50,-579,-1018
-170,-1674,-368,14,-586,-1166
53,-1585,-462,0,-627,-1229
193,-1500,-510,22,-689,-1228
238,-1450,-493,46,-721,-1197
230,-1393,-465,61,-757,-1159
188,-1359,-379,70,-856,-1115
93,-1361,-304,39,-996,-1054
0,-1401,-298,-3,-1170,-991
140,-1451,-294,-65,-1309,-980
461,-1453,-310,-147,-1376,-1009
695,-1498,-414,-202,-1334,-1047
843,-1568,-559,-243,-1183,-1102
957,-1632,-659,-237,-1013,-1145
951,-1688,-721,-185,-952,-1123
798,-1739,-739,-68,-1104,-977
540,-1732,-638,73,-1386,-753
229,-1695,-470,139,-1653,-571
36,-1665,-384,115,-1825,-542
166,-1568,-272,53,-1862,-714
601,-1510,-312,-101,-1668,-1007
1070,-1525,-496,-234,-1436,-1212
1394,-1563,-619,-270,-1301,-1240
1588,-1658,-723,-255,-1193,-1125
1703,-1725,-674,-183,-1248,-857
1720,-1779,-458,-98,-1513,-478
1619,-1865,-274,-90,-1783,-134
1509,-1936,-171,-164,-1918,38
1456,-1990,-187,-283,-1899,27
1373,-2079,-427,-374,-1754,-85
1520,-2105,-645,-384,-1542,-297
2018,-2102,-720,-373,-1226,-536
2487,-2081,-770,-365,-919,-596
2761,-2159,-866,-362,-690,-481
2870,-2287,-997,-329,-628,-271
2858,-2305,-1023,-99,-840,87
2520,-2182,-754,140,-1258,717
1914,-2147,-527,230,-1062,848
1562,-2081,-520,274,-833,575
1382,-1835,-440,363,-862,392
1409,-1697,-231,287,-655,156
1715,-1767,-337,-8,-174,-160
2048,-1879,-575,-151,121,-328
2230,-1921,-685,-111,183,-236
2257,-1858,-691,-44,141,51
2258,-1760,-600,19,8,298
2227,-1724,-495,60,-23,414
2200,-1651,-423,82,0,473
2237,-1584,-441,43,18,521
2219,-1566,-538,-31,23,633
2041,-1576,-600,-91,78,724
1819,-1590,-664,-141,292,650
1674,-1553,-674,-162,592,460
1698,-1493,-677,-189,870,288
1775,-1462,-718,-221,1009,264
1709,-1423,-716,-208,990,382
1639,-1326,-640,-165,941,497
1693,-1193,-476,-139,917,580
1770,-1101,-368,-227,967,635
1733,-1117,-465,-361,1030,755
1609,-1149,-522,-445,981,914
1495,-1229,-601,-559,1059,985
1384,-1398,-780,-689,1223,999
1208,-1571,-946,-716,1301,1019
1073,-1655,-1020,-644,1305,1043
1036,-1662,-991,-555,1245,1100
965,-1658,-924,-476,1121,1227
868,-1582,-795,-384,920,1386
785,-1469,-611,-316,740,1475
743,-1394,-463,-337,749,1412
658,-1406,-429,-457,961,1226
505,-1493,-484,-614,1207,1012
297,-1649,-578,-783,1477,830
171,-1805,-749,-925,1625,719
126,-1923,-927,-959,1547,716
91,-1979,-1048,-892,1338,819
154,-1960,-990,-785,1138,929
224,-1983,-938,-694,1047,969
162,-1963,-934,-550,930,996
43,-1837,-816,-421,780,1027
-165,-1837,-700,-445,777,984
-484,-1994,-818,-599,975,790
-679,-2184,-1052,-731,1192,506
-666,-2308,-1254,-757,1243,297
-597,-2398,-1406,-711,1090,282
-629,-2465,-1464,-601,808,416
-738,-2447,-1407,-426,538,514
-802,-2362,-1259,-268,389,463
-763,-2294,-1106,-192,354,307
-641,-2290,-1023,-197,378,139
-552,-2349,-1022,-244,413,19
-517,-2463,-1158,-283,367,-3
-500,-2536,-1235,-244,127,70
-556,-2587,-1243,-176,-112,148
-676,-2632,-1306,-125,-226,135
-721,-2699,-1431,-39,-296,26
-682,-2739,-1508,106,-363,-79
-629,-2678,-1416,282,-482,-147
-543,-2544,-1173,434,-596,-262
-430,-2471,-1024,467,-567,-479
-214,-2452,-1043,427,-435,-728
33,-2458,-1060,434,-371,-879
148,-2451,-1016,493,-342,-903
158,-2412,-954,569,-313,-905
239,-2390,-925,645,-388,-942
461,-2368,-873,712,-527,-941
782,-2326,-838,751,-663,-874
1094,-2296,-770,779,-763,-790
1298,-2299,-733,804,-761,-702
1360,-2327,-703,838,-717,-603
1274,-2341,-700,912,-642,-530
1160,-2295,-686,1014,-583,-504
1091,-2250,-681,1082,-561,-503
1019,-2281,-768,1088,-539,-452
994,-2306,-767,1099,-557,-374
1016,-2334,-715,1107,-502,-369
1014,-2327,-689,1188,-457,-322
939,-2267,-573,1256,-539,-281
840,-2139,-466,1264,-447,-323
779,-2035,-429,1215,-354,-408
732,-1963,-399,1156,-358,-476
787,-1921,-335,1088,-331,-540
959,-1904,-337,980,-174,-606
1071,-1920,-448,870,12,-619
1230,-1953,-549,846,12,-588
1375,-2021,-629,920,-62,-472
1343,-1994,-627,1097,-150,-305
1232,-1842,-535,1311,-255,-187
1156,-1631,-318,1477,-384,-148
1120,-1461,-102,1523,-440,-144
1108,-1339,57,1458,-362,-172
1086,-1268,146,1343,-239,-226
1065,-1201,201,1230,-154,-296
1127,-1123,236,1089,-11,-370
1140,-1078,201,862,116,-363
1078,-1259,-29,695,263,-378
1210,-1272,-168,735,199,-429
1378,-1112,-186,799,-73,-284
1243,-1094,-199,808,-249,-61
1136,-1105,-213,727,-343,47
1084,-1101,-205,723,-255,41
973,-1072,-126,773,-74,-118
926,-1067,-62,741,22,-293
995,-1024,104,754,90,-366
1037,-951,344,700,65,-329
990,-932,441,526,-43,-235
989,-869,463,350,-142,-159
1031,-893,422,107,-185,-153
1062,-1109,156,-180,-129,-143
1091,-1360,-146,-298,-110,-120
1181,-1520,-203,-223,-137,-140
1310,-1622,-106,-123,-90,-185
1476,-1670,62,-62,64,-251
1648,-1742,167,-60,295,-327
1825,-1810,252,-57,411,-364
2020,-1813,388,-28,478,-336
2225,-1742,549,-43,602,-245
2233,-1641,630,-110,736,-100
2052,-1572,643,-199,788,31
1936,-1535,616,-300,840,50
1971,-1471,577,-369,926,6
2057,-1377,618,-416,1012,24
2041,-1411,626,-520,1132,89
1927,-1477,497,-610,1197,149
1872,-1456,503,-613,1180,186
1865,-1404,556,-641,1143,233
1771,-1457,487,-749,1064,372
1616,-1554,371,-848,931,542
1510,-1634,255,-925,811,643
1342,-1802,14,-1014,819,663
1170,-1944,-264,-1034,913,610
1115,-2000,-471,-958,1039,505
1049,-2060,-615,-861,1212,436
909,-2109,-727,-746,1359,426
805,-2112,-741,-589,1433,442
757,-2049,-595,-413,1381,513
632,-1941,-386,-271,1251,628
400,-1831,-207,-216,1116,704
165,-1793,-120,-240,980,697
-17,-1788,-103,-310,896,635
-121,-1758,-86,-411,859,545
-98,-1746,-84,-565,892,428
-171,-1850,-215,-730,928,342
-307,-1988,-435,-783,920,268
-270,-2030,-557,-702,842,162
-50,-1993,-590,-617,742,70
48,-2059,-618,-580,638,95
-26,-2140,-631,-520,536,171
-99,-2119,-555,-418,511,120
-167,-2096,-513,-354,543,-16
-199,-2063,-499,-322,484,-124
-152,-2039,-477,-321,425,-201
-235,-2093,-551,-343,369,-234
-522,-2183,-734,-326,239,-239
-789,-2235,-897,-217,56,-273
-906,-2159,-915,-64,-176,-350
-898,-2010,-849,57,-339,-474
-748,-1861,-761,103,-383,-638
-456,-1745,-662,90,-367,-805
-228,-1680,-608,85,-354,-949
-61,-1616,-589,111,-381,-1053
69,-1525,-582,153,-473,-1101
183,-1416,-537,188,-612,-1088
188,-1311,-458,197,-751,-1035
111,-1238,-373,168,-810,-1006
10,-1278,-371,92,-810,-994
-173,-1425,-483,42,-964,-923
-260,-1422,-465,94,-1225,-869
-81,-1316,-353,111,-1363,-969
225,-1348,-406,-7,-1329,-1145
579,-1401,-532,-113,-1194,-1266
895,-1433,-595,-113,-1061,-1333
1147,-1391,-550,-54,-1007,-1339
1203,-1329,-431,24,-1074,-1215
1176,-1227,-270,62,-1271,-997
1143,-1174,-122,8,-1494,-757
1077,-1254,-82,-124,-1616,-558
1030,-1398,-97,-269,-1739,-421
1091,-1564,-136,-368,-1872,-342
1251,-1622,-119,-427,-1866,-324
1415,-1656,-169,-505,-1705,-368
1618,-1704,-300,-565,-1591,-412
1869,-1759,-400,-591,-1505,-388
2069,-1831,-417,-609,-1447,-261
2106,-1958,-490,-634,-1449,-53
1984,-2159,-537,-636,-1589,221
1803,-2306,-529,-607,-1763,451
1535,-2435,-603,-547,-1858,525
1376,-2448,-669,-429,-1930,472
1505,-2352,-611,-316,-1861,312
1819,-2280,-564,-275,-1605,117
2275,-2221,-573,-295,-1286,-29
2523,-2318,-741,-337,-1011,-31
2576,-2378,-882,-249,-1003,120
2519,-2327,-799,-82,-1078,348
2296,-2134,-692,42,-1096,488
2143,-1854,-362,87,-1161,702
1878,-2048,-502,-196,-872,786
1824,-2049,-519,5,-363,267
2154,-1775,-475,63,-172,-229
2300,-1756,-607,-71,-46,-229
2240,-1855,-751,-156,11,-2
2249,-1812,-740,-83,46,125
2247,-1730,-662,0,68,161
2208,-1670,-647,14,137,230
2140,-1633,-631,-1,224,373
2065,-1597,-585,-42,268,534
1949,-1574,-543,-106,329,624
1875,-1618,-639,-212,451,608
1854,-1688,-793,-305,600,582
1693,-1806,-971,-336,828,574
1544,-1837,-1071,-262,925,555
1529,-1717,-997,-132,845,594
1571,-1580,-800,-47,796,713
1625,-1484,-665,-95,868,779
1660,-1443,-620,-122,955,804
1674,-1344,-501,-80,935,875
1622,-1193,-349,-82,888,990
1386,-1123,-230,-158,933,1085
1132,-1123,-185,-279,1083,1060
972,-1148,-251,-428,1270,944
844,-1244,-445,-594,1401,863
852,-1369,-713,-757,1454,860
910,-1535,-990,-847,1404,974
884,-1654,-1134,-802,1252,1185
789,-1691,-1119,-678,1088,1375
680,-1681,-1016,-547,951,1497
571,-1600,-836,-434,820,1557
308,-1589,-746,-425,860,1517
25,-1644,-731,-489,1017,1338
-107,-1721,-816,-591,1217,1052
-119,-1835,-998,-712,1347,821
-173,-2007,-1197,-766,1336,772
-258,-2103,-1349,-718,1189,831
-290,-2144,-1375,-618,1016,910
-374,-2194,-1308,-525,887,950
-566,-2215,-1192,-406,771,909
-738,-2201,-1054,-302,673,773
-794,-2199,-990,-298,588,598
-752,-2253,-1053,-359,537,444
-736,-2374,-1174,-397,485,325
-686,-2431,-1238,-348,407,209
-586,-2413,-1195,-234,283,92
-510,-2369,-1090,-122,158,-3
-407,-2341,-1026,-77,109,-95
-290,-2360,-1010,-52,10,-148
-203,-2434,-1025,-33,-95,-163
-128,-2556,-1043,-13,-168,-154
-97,-2666,-1042,33,-294,-121
-167,-2755,-1058,107,-464,-81
-206,-2784,-1048,187,-556,-138
0,-2819,-1052,222,-484,-315
206,-2935,-1134,240,-366,-466
248,-3062,-1273,314,-312,-529
279,-3155,-1386,449,-332,-544
294,-3219,-1424,614,-454,-494
226,-3212,-1404,819,-614,-414
72,-3108,-1287,1050,-756,-382
-4,-2955,-1164,1206,-760,-490
169,-2817,-1063,1279,-606,-691
375,-2724,-1016,1330,-448,-863
479,-2637,-990,1403,-421,-934
577,-2548,-932,1479,-469,-923
620,-2462,-846,1526,-519,-824
464,-2364,-742,1569,-588,-699
265,-2205,-609,1624,-649,-675
298,-1998,-393,1643,-720,-774
601,-1850,-236,1528,-711,-914
907,-1829,-211,1337,-643,-953
1139,-1812,-282,1181,-625,-895
1267,-1836,-325,1110,-694,-804
1324,-1822,-346,1102,-742,-721
1278,-1796,-443,1143,-771,-640
1098,-1801,-590,1239,-808,-561
953,-1788,-700,1363,-744,-532
921,-1731,-747,1514,-693,-552
936,-1630,-616,1669,-687,-546
897,-1455,-431,1767,-628,-551
890,-1234,-240,1765,-564,-627
987,-1105,-136,1643,-460,-717
1182,-1006,-121,1453,-298,-749
1409,-946,-123,1285,-182,-749
1553,-905,-126,1159,-125,-703
1548,-915,-124,1093,-148,-577
1540,-731,60,1061,-281,-425
1356,-697,189,878,-262,-278
1162,-854,124,764,-162,-302
1056,-903,46,722,-265,-298
1059,-871,78,719,-370,-268
1100,-836,127,614,-378,-226
1149,-856,108,434,-219,-210
1168,-934,41,292,-9,-259
1226,-978,1,227,81,-323
1347,-1006,-10,197,134,-362
1454,-1070,-59,166,130,-319
1522,-1115,-84,178,-3,-187
1509,-1124,0,215,-139,-32
1472,-1069,125,209,-200,81
1398,-1011,264,130,-139,116
1255,-1024,273,-40,43,49
1174,-1154,120,-229,188,-57
1252,-1272,5,-339,178,-88
1414,-1337,-26,-393,162,-60
1541,-1400,-38,-426,233,-40
1669,-1453,-7,-428,306,-42
2010,-1442,107,-444,396,-64
2691,-1487,274,-554,595,-70
3498,-1601,452,-702,997,95
3492,-1541,327,-764,1516,462
2932,-1518,199,-691,1434,723
2497,-1617,171,-601,1212,806
2138,-1615,133,-554,1112,935
1643,-1579,132,-489,962,1105
1182,-1588,111,-489,808,1172
869,-1658,64,-544,792,1105
624,-1758,-18,-609,912,958
479,-1834,-108,-652,1005,777
480,-1899,-143,-655,1044,601
672,-1943,-108,-632,1010,498
920,-1927,-3,-597,941,532
991,-1811,84,-579,912,634
815,-1747,169,-584,908,687
606,-1741,143,-635,998,643
491,-1747,79,-726,1062,591
299,-1840,-28,-817,1064,598
101,-1944,-184,-850,1015,592
24,-1994,-327,-823,971,530
-41,-2084,-469,-783,958,473
-76,-2122,-558,-722,901,446
-98,-2156,-562,-639,850,421
-168,-2184,-527,-546,796,395
-273,-2152,-453,-456,696,353
-362,-2121,-370,-402,575,286
-387,-2104,-312,-415,497,181
-284,-2113,-345,-480,503,49
-208,-2197,-472,-531,494,-22
-195,-2292,-628,-511,426,-50
-114,-2342,-705,-414,335,-89
-36,-2335,-684,-299,235,-93
-19,-2303,-657,-194,141,-83
-45,-2291,-635,-110,70,-99
-76,-2280,-614,-55,25,-141
7,-2253,-563,-5,25,-225
123,-2217,-510,42,14,-296
137,-2188,-463,95,-75,-291
46,-2115,-427,144,-225,-247
22,-2027,-404,164,-330,-251
59,-1950,-409,155,-335,-306
50,-1885,-452,148,-292,-390
-48,-1816,-556,162,-281,-474
-160,-1733,-629,202,-315,-553
-214,-1618,-597,282,-400,-625
-153,-1462,-477,345,-467,-694
54,-1391,-355,309,-416,-774
318,-1368,-273,240,-400,-802
487,-1346,-174,219,-526,-752
520,-1411,-144,154,-642,-655
500,-1502,-171,67,-740,-550
339,-1611,-235,33,-899,-442
89,-1694,-323,61,-1065,-392
-74,-1696,-379,116,-1174,-433
20,-1587,-296,155,-1239,-550
288,-1510,-187,108,-1180,-713
606,-1568,-237,-24,-988,-855
882,-1672,-319,-139,-864,-882
1104,-1780,-361,-191,-866,-808
1229,-1861,-382,-167,-938,-688
1117,-1941,-411,-88,-1135,-505
818,-1892,-322,52,-1438,-305
514,-1732,-157,141,-1566,-244
206,-1631,-142,104,-1500,-314
130,-1507,-157,41,-1502,-453
626,-1373,-22,-117,-1413,-693
1349,-1410,-95,-446,-1106,-897
1705,-1648,-322,-676,-888,-881
1892,-1877,-531,-724,-779,-737
1906,-2044,-649,-574,-944,-481
1607,-2043,-563,-268,-1315,-137
1163,-1913,-385,-16,-1610,94
832,-1736,-203,61,-1766,168
589,-1612,-97,26,-1875,161
728,-1478,24,-145,-1809,-35
1493,-1439,59,-502,-1366,-413
2117,-1655,-197,-861,-833,-664
2378,-1902,-417,-1040,-648,-553
2282,-2366,-861,-1076,-651,-224
2153,-2545,-974,-608,-821,-124
1972,-2320,-714,-241,-1285,130
1586,-2218,-534,-116,-1335,311
1372,-2205,-531,-142,-1203,201
1583,-2153,-542,-230,-1114,21
1924,-2271,-686,-385,-793,-170
2110,-2416,-933,-416,-521,-285
2224,-2430,-1015,-266,-392,-326
2302,-2352,-992,-122,-326,-274
2193,-2278,-908,7,-292,-95
2019,-2154,-792,110,-232,30
1953,-2049,-678,158,-132,45
1993,-1936,-624,162,-56,49
2000,-1850,-626,143,41,66
1936,-1795,-645,128,168,89
1858,-1692,-604,147,270,104
1755,-1584,-524,158,346,126
1635,-1498,-478,136,427,162
1534,-1423,-425,111,539,168
1508,-1396,-422,62,654,130
1635,-1367,-443,20,754,101
1757,-1295,-386,-3,776,162
1846,-1263,-303,-47,765,289
2010,-1221,-253,-124,771,414
2022,-1227,-249,-200,729,587
1855,-1215,-241,-257,670,775
1689,-1193,-218,-343,704,879
1542,-1243,-310,-473,802,911
1384,-1331,-436,-590,927,893
1264,-1423,-571,-658,1065,841
1215,-1502,-727,-664,1109,821
1227,-1512,-795,-618,1046,898
1168,-1498,-765,-563,992,1022
1040,-1471,-683,-507,1003,1082
998,-1362,-518,-462,1054,1033
982,-1275,-396,-509,1197,902
987,-1328,-510,-682,1357,774
1054,-1495,-715,-843,1391,762
1024,-1630,-861,-902,1265,897
881,-1668,-982,-908,1129,1028
686,-1750,-1097,-904,1123,1062
499,-1803,-1130,-863,1188,1023
458,-1762,-1073,-787,1246,921
495,-1700,-972,-707,1225,854
504,-1640,-859,-676,1154,860
441,-1626,-847,-722,1123,855
334,-1739,-969,-825,1156,810
184,-1941,-1208,-917,1185,765
12,-2125,-1448,-897,1145,752
-186,-2234,-1554,-782,1046,751
-363,-2251,-1506,-640,917,721
-524,-2259,-1425,-526,806,641
-669,-2292,-1377,-457,736,535
-710,-2334,-1321,-408,661,426
-625,-2402,-1305,-384,563,306
-480,-2499,-1312,-343,470,207
-361,-2548,-1252,-251,374,138
-328,-2533,-1148,-130,281,81
-399,-2488,-1015,-23,154,44
-548,-2453,-909,43,15,-6
-633,-2431,-906,53,-75,-107
-541,-2467,-959,48,-127,-255
-409,-2535,-1054,74,-154,-379
-160,-2562,-1053,138,-200,-453
113,-2571,-962,201,-251,-494
209,-2621,-945,252,-303,-495
253,-2650,-968,312,-407,-475
351,-2635,-943,380,-545,-445
464,-2615,-926,425,-600,-427
575,-2639,-991,447,-559,-438
599,-2696,-1057,501,-533,-464
606,-2701,-1074,609,-507,-486
671,-2695,-1028,707,-499,-493
733,-2723,-1007,781,-548,-454
712,-2753,-1007,848,-632,-374
586,-2766,-1027,943,-699,-308
417,-2716,-972,1072,-727,-317
272,-2616,-933,1169,-667,-422
203,-2479,-925,1256,-653,-560
263,-2358,-893,1315,-666,-700
439,-2282,-867,1314,-607,-814
670,-2191,-858,1321,-533,-879
909,-2121,-804,1362,-529,-886
1046,-2078,-733,1403,-563,-809
1093,-1979,-634,1455,-632,-681
1082,-1885,-500,1490,-694,-565
959,-1807,-400,1488,-698,-486
847,-1714,-313,1471,-755,-459
939,-1615,-202,1423,-807,-502
1093,-1546,-158,1328,-797,-538
1190,-1553,-198,1219,-715,-538
1254,-1626,-328,1152,-644,-527
1373,-1600,-387,1175,-661,-488
1431,-1517,-347,1237,-668,-425
1411,-1442,-287,1263,-612,-367
1365,-1399,-218,1271,-549,-325
1306,-1290,-139,1277,-548,-303
1286,-1149,-39,1240,-548,-313
1337,-1038,11,1122,-469,-356
1406,-989,-26,936,-347,-392
1401,-1010,-141,766,-218,-402
1326,-1074,-300,662,-72,-402
1327,-1076,-389,655,-9,-433
1344,-1004,-374,630,4,-365
1299,-1042,-412,611,1,-279
1248,-962,-342,677,-132,-171
1162,-840,-161,693,-185,-100
1098,-802,-60,607,-63,-114
1027,-827,28,523,6,-143
919,-840,82,436,3,-150
860,-869,123,325,-23,-153
936,-905,168,210,-56,-163
1044,-957,176,101,-98,-158
1116,-1005,203,18,-201,-108
1169,-1120,210,-88,-207,-77
1321,-1263,155,-150,-160,-137
1475,-1341,165,-143,-180,-147
1543,-1409,211,-159,-105,-128
1646,-1496,191,-217,45,-131
1752,-1517,187,-227,128,-121
1923,-1466,257,-249,175,-83
2165,-1439,330,-345,304,-25
2365,-1496,328,-484,459,63
2469,-1566,234,-561,540,161
2441,-1601,147,-559,537,269
2380,-1625,52,-549,560,372
2215,-1692,-88,-537,632,465
2034,-1750,-188,-501,750,514
1943,-1740,-187,-446,837,549
1860,-1724,-132,-411,889,620
1771,-1733,-54,-426,968,689
1660,-1768,2,-470,1057,736
1574,-1842,7,-515,1132,757
1493,-1905,-33,-541,1204,755
1352,-1890,-51,-531,1181,786
1157,-1871,-49,-519,1158,832
934,-1849,-100,-533,1167,854
708,-1837,-166,-528,1157,825
610,-1793,-182,-523,1171,735
612,-1782,-200,-554,1270,637
560,-1857,-285,-599,1341,594
438,-1912,-335,-580,1261,621
285,-1913,-290,-519,1102,663
121,-1906,-249,-492,954,689
-58,-1897,-219,-491,831,687
-273,-1930,-239,-491,757,608
-377,-1936,-279,-488,744,446
-270,-1904,-274,-507,742,289
-103,-1952,-311,-563,726,217
-44,-2061,-404,-593,647,203
-15,-2110,-449,-552,558,166
119,-2113,-426,-499,537,89
241,-2108,-420,-466,536,50
239,-2109,-432,-432,458,78
229,-2094,-419,-386,386,93
277,-2071,-405,-352,362,63
274,-2087,-443,-340,350,38
198,-2136,-503,-331,291,57
119,-2177,-530,-296,238,64
12,-2230,-569,-252,212,20
-95,-2269,-605,-176,158,-51
-239,-2256,-633,-75,81,-136
-331,-2251,-686,13,20,-243
-362,-2218,-706,108,-46,-351
-381,-2106,-686,209,-138,-448
-340,-1973,-623,279,-217,-546
-219,-1817,-558,310,-301,-631
30,-1667,-479,300,-361,-704
277,-1536,-411,257,-353,-769
451,-1439,-388,221,-330,-818
510,-1347,-366,212,-326,-841
404,-1258,-365,208,-353,-821
252,-1230,-380,191,-435,-771
187,-1290,-387,161,-525,-720
157,-1422,-426,138,-620,-674
23,-1593,-485,164,-792,-626
-93,-1665,-448,263,-1025,-603
24,-1539,-268,320,-1164,-664
70,-1543,-266,241,-1114,-778
133,-1664,-409,133,-937,-951
533,-1635,-448,124,-773,-1171
1017,-1476,-342,140,-776,-1230
1263,-1435,-275,95,-880,-1078
1244,-1422,-270,58,-1031,-841
1070,-1392,-252,59,-1175,-650
819,-1331,-175,83,-1227,-587
593,-1255,-57,74,-1228,-629
406,-1250,38,-35,-1232,-689
383,-1318,-21,-223,-1292,-746
803,-1417,-90,-408,-1349,-827
1308,-1493,-184,-543,-1310,-875
1538,-1591,-338,-610,-1273,-813
1709,-1666,-443,-596,-1298,-692
1765,-1672,-334,-491,-1449,-489
1543,-1691,-299,-448,-1582,-276
1307,-1764,-355,-431,-1702,-168
1476,-1810,-269,-459,-1740,-184
1764,-1892,-298,-597,-1645,-214
1857,-2056,-460,-694,-1590,-179
2032,-2130,-525,-691,-1499,-168
2289,-2158,-582,-684,-1349,-188
2400,-2273,-770,-642,-1221,-164
2404,-2380,-966,-437,-1192,-64
2351,-2333,-934,-287,-1307,246
2149,-2352,-966,-167,-1137,429
2247,-2342,-764,24,-986,228
2446,-2183,-632,41,-739,62
2314,-2212,-686,-29,-474,94
2135,-2281,-808,-87,-386,141
2026,-2233,-831,-12,-390,191
1818,-2132,-788,43,-400,269
1632,-2059,-777,49,-250,237
1537,-1973,-724,101,-122,164
1465,-1824,-627,158,-113,135
1571,-1638,-475,160,-74,97
1752,-1525,-410,60,38,61
1839,-1473,-429,-27,98,94
1840,-1395,-433,-50,117,151
1843,-1302,-398,-65,149,193
1865,-1229,-355,-127,219,225
1798,-1202,-325,-209,341,256
1722,-1234,-353,-289,465,279
1660,-1302,-402,-350,500,355
1598,-1352,-486,-460,472,434
1598,-1375,-506,-500,478,488
1631,-1352,-493,-535,535,501
1693,-1329,-515,-587,612,505
1742,-1342,-557,-627,687,543
1886,-1314,-538,-651,754,601
1995,-1270,-480,-662,851,665
1849,-1231,-432,-653,957,734
1619,-1171,-328,-652,1063,770
1520,-1107,-249,-717,1111,768
1426,-1143,-339,-880,1137,789
1250,-1261,-564,-1051,1116,864
1169,-1398,-730,-1144,1095,882
1249,-1463,-824,-1192,1140,849
1245,-1584,-971,-1209,1154,887
1051,-1720,-1137,-1131,1014,1018
907,-1733,-1198,-1008,853,1146
831,-1674,-1079,-936,799,1198
662,-1712,-1062,-985,1003,1080
379,-1867,-1207,-1037,1267,852
227,-1963,-1357,-1010,1334,634
234,-1985,-1439,-973,1259,535
166,-2064,-1521,-933,1146,584
-48,-2180,-1669,-869,1021,674
-246,-2241,-1783,-767,865,677
-359,-2277,-1823,-640,743,601
-387,-2280,-1752,-513,693,503
-347,-2242,-1625,-418,666,375
-225,-2211,-1479,-342,621,227
-59,-2160,-1334,-284,566,120
18,-2085,-1210,-242,460,88
20,-2040,-1121,-225,329,87
45,-2036,-1054,-220,226,68
134,-2022,-975,-196,151,38
157,-2016,-911,-174,96,7
86,-2060,-955,-178,83,-54
69,-2142,-1042,-164,38,-121
120,-2216,-1088,-112,-59,-138
131,-2299,-1126,-62,-138,-142
130,-2427,-1188,-16,-179,-191
204,-2518,-1219,49,-235,-258
263,-2610,-1227,106,-264,-297
178,-2776,-1323,151,-297,-299
76,-2865,-1414,262,-384,-330
139,-2851,-1407,400,-458,-425
270,-2848,-1416,500,-506,-517
443,-2860,-1461,591,-507,-593
608,-2881,-1526,700,-492,-646
702,-2891,-1576,850,-508,-644
753,-2862,-1542,1036,-570,-591
745,-2766,-1422,1226,-686,-516
765,-2658,-1274,1372,-790,-468
790,-2521,-1119,1468,-824,-479
827,-2401,-1054,1483,-776,-564
969,-2352,-1070,1465,-707,-677
1123,-2298,-1085,1490,-652,-727
1158,-2209,-1067,1542,-616,-712
1185,-2113,-1025,1596,-630,-670
1260,-2008,-913,1640,-654,-604
1291,-1890,-825,1660,-652,-539
1315,-1772,-725,1670,-658,-486
1380,-1656,-594,1649,-571,-467
1426,-1554,-514,1593,-424,-485
1399,-1510,-472,1549,-338,-508
1375,-1435,-417,1513,-281,-515
1331,-1385,-373,1454,-221,-499
1225,-1368,-386,1397,-217,-458
1137,-1300,-355,1380,-298,-415
1081,-1221,-303,1363,-345,-397
1089,-1122,-281,1311,-364,-398
1075,-1051,-269,1246,-389,-401
1042,-1015,-295,1176,-363,-425
1066,-967,-322,1108,-280,-491
1118,-903,-356,1047,-197,-559
1201,-828,-361,987,-129,-598
1276,-805,-402,929,-67,-592
1435,-709,-338,882,-99,-540
1526,-738,-282,778,-31,-426
1568,-802,-183,742,33,-344
1488,-808,-81,716,-39,-224
1385,-777,65,697,-66,-154
1293,-753,151,548,-74,-99
1142,-821,106,356,-1,-56
1027,-918,9,224,34,-89
1105,-965,-82,144,14,-134
1253,-1040,-126,102,-7,-133
1362,-1161,-171,82,-83,-119
1454,-1214,-163,145,-124,-109
1715,-1162,-37,189,-51,-154
2132,-1163,114,124,113,-160
2578,-1178,226,-12,312,-93
2811,-1174,323,-91,567,82
2646,-1210,338,-137,717,246
2499,-1134,373,-173,760,307
2370,-1112,400,-249,753,388
2204,-1128,362,-380,632,563
2002,-1193,272,-507,549,736
1810,-1285,164,-602,538,804
1716,-1336,81,-646,552,792
1697,-1380,45,-676,629,750
1683,-1480,-16,-737,792,712
1676,-1540,-100,-771,913,695
1610,-1589,-150,-762,974,717
1498,-1610,-163,-742,1013,778
1361,-1569,-137,-715,1024,859
1193,-1530,-79,-723,1041,920
1056,-1567,-105,-788,1067,939
921,-1689,-208,-848,1078,930
741,-1823,-349,-844,1069,909
657,-1912,-480,-808,1017,874
694,-1974,-573,-757,943,851
660,-2042,-642,-678,882,876
520,-2095,-688,-570,871,886
457,-2084,-638,-441,869,836
428,-2042,-542,-337,858,773
294,-2032,-504,-282,777,745
132,-2042,-495,-245,636,729
-29,-2081,-485,-221,526,705
-170,-2117,-489,-227,530,631
-226,-2168,-522,-236,559,503
-258,-2176,-559,-205,489,400
-321,-2150,-554,-145,341,343
-346,-2112,-542,-158,259,288
-320,-2133,-606,-245,278,203
-294,-2238,-722,-302,339,122
-278,-2333,-814,-300,362,41
-171,-2353,-811,-223,332,-62
-7,-2313,-749,-117,276,-163
138,-2251,-655,-18,201,-207
258,-2185,-540,61,110,-192
328,-2122,-413,121,16,-153
381,-2021,-257,175,-90,-142
436,-1898,-124,191,-141,-174
415,-1833,-63,156,-136,-204
319,-1822,-97,84,-107,-233
235,-1784,-134,43,-120,-283
176,-1750,-226,1,-156,-350
144,-1696,-366,-18,-214,-399
90,-1590,-418,2,-277,-426
-89,-1544,-513,11,-344,-453
-252,-1492,-611,46,-435,-512
-108,-1389,-563,89,-535,-584
221,-1259,-426,48,-588,-629
357,-1216,-403,-54,-546,-654
324,-1271,-510,-140,-499,-698
283,-1313,-588,-172,-569,-711
160,-1391,-632,-191,-705,-653
12,-1535,-728,-229,-835,-597
-23,-1633,-789,-227,-967,-614
16,-1755,-835,-196,-1029,-698
176,-1822,-833,-134,-997,-800
427,-1802,-779,-48,-972,-880
632,-1766,-658,35,-1027,-882
754,-1663,-528,84,-1061,-856
835,-1570,-403,103,-1091,-866
821,-1497,-330,86,-1149,-862
775,-1457,-333,42,-1248,-841
830,-1505,-385,-65,-1340,-810
846,-1729,-498,-171,-1374,-731
895,-1887,-484,-175,-1417,-686
917,-1930,-462,-121,-1483,-695
832,-2012,-532,-31,-1573,-712
852,-1910,-547,114,-1630,-772
1028,-1689,-465,207,-1646,-837
1378,-1518,-322,164,-1606,-892
1903,-1413,-221,-35,-1425,-930
2382,-1400,-290,-297,-1149,-850
2586,-1637,-483,-473,-1107,-621
2548,-1882,-605,-496,-1267,-278
2308,-1932,-599,-355,-1362,-1
1944,-1816,-357,-192,-1585,247
1429,-1930,-535,-305,-1477,370
1336,-1954,-467,-83,-1161,-47
2008,-1760,-466,-159,-987,-468
2524,-1935,-682,-332,-611,-462
2746,-2108,-779,-312,-356,-396
2971,-2122,-727,-196,-421,-271
2912,-2123,-631,-63,-597,77
2601,-2042,-485,58,-751,399
2269,-1992,-424,80,-739,515
2028,-1965,-465,58,-580,495
1815,-1911,-534,17,-369,409
1623,-1906,-653,-37,-131,268
1513,-1898,-778,-71,44,137
1437,-1815,-854,-53,96,57
1578,-1683,-814,-33,144,-25
1847,-1603,-748,-59,295,-79
1958,-1526,-667,-44,379,-33
1980,-1417,-562,-13,399,51
2016,-1316,-477,-19,373,174
2023,-1242,-435,-30,321,373
1987,-1130,-330,-85,263,566
1889,-1098,-280,-229,381,633
1735,-1144,-363,-378,606,604
1665,-1176,-451,-495,804,540
1676,-1216,-549,-596,972,510
1677,-1262,-647,-650,1026,562
1655,-1246,-648,-632,989,665
1612,-1227,-614,-618,1017,742
1469,-1242,-598,-611,1072,797
1336,-1236,-524,-591,1058,859
1275,-1217,-443,-628,1006,922
1196,-1264,-442,-717,989,967
1104,-1318,-513,-814,1011,949
1080,-1360,-604,-911,1054,877
1100,-1428,-747,-1007,1130,799
1185,-1503,-901,-1076,1224,769
1233,-1581,-1046,-1084,1251,818
1119,-1607,-1099,-1001,1176,927
908,-1590,-1079,-907,1111,1011
691,-1600,-1036,-870,1132,998
543,-1656,-1105,-898,1191,896
541,-1729,-1184,-947,1215,790
599,-1779,-1235,-995,1233,742
647,-1879,-1339,-1029,1234,748
656,-1950,-1393,-972,1132,808
552,-1924,-1316,-863,998,885
