ax,ay,az,gx,gy,gz
2590,-558,-184,-326,989,160
2516,-513,-68,-383,911,394
2375,-526,-14,-513,774,671
2245,-604,-37,-633,605,869
2045,-681,-95,-695,520,963
1835,-813,-191,-745,600,950
1714,-958,-330,-791,787,846
1807,-1025,-364,-775,970,715
1977,-1094,-371,-764,1084,662
2023,-1158,-415,-770,1045,786
2024,-1186,-412,-745,992,999
2002,-1209,-354,-722,1005,1171
1902,-1214,-278,-739,1118,1303
1677,-1246,-265,-758,1263,1387
1520,-1253,-194,-771,1351,1371
1403,-1295,-150,-807,1465,1305
1260,-1346,-170,-848,1530,1263
1118,-1432,-205,-857,1517,1251
1016,-1522,-283,-840,1337,1290
1014,-1559,-351,-789,1041,1352
999,-1593,-413,-754,848,1435
961,-1657,-490,-725,787,1509
928,-1692,-544,-661,839,1503
867,-1692,-543,-600,969,1402
765,-1708,-538,-588,1168,1261
622,-1768,-542,-590,1329,1173
467,-1825,-493,-551,1364,1167
270,-1895,-384,-506,1282,1218
21,-2019,-343,-516,1124,1264
-282,-2171,-394,-511,941,1260
-545,-2287,-470,-445,831,1143
-761,-2373,-565,-386,844,917
-962,-2481,-679,-332,899,630
-1123,-2596,-809,-259,944,323
-1165,-2623,-870,-140,848,70
-1116,-2585,-824,10,620,-80
-1095,-2551,-781,96,356,-136
-1158,-2551,-787,138,85,-120
-1282,-2498,-728,217,-179,-114
-1332,-2393,-563,303,-338,-262
-1222,-2275,-433,323,-274,-611
-946,-2127,-387,304,-174,-997
-677,-1971,-382,303,-272,-1235
-492,-1857,-444,307,-443,-1325
-325,-1763,-527,307,-585,-1359
-194,-1721,-576,335,-724,-1353
-77,-1672,-593,398,-875,-1307
139,-1586,-435,481,-938,-1277
355,-1494,-246,486,-927,-1304
564,-1428,-181,423,-910,-1370
753,-1395,-179,361,-836,-1426
879,-1370,-189,310,-798,-1457
952,-1352,-222,283,-873,-1420
989,-1303,-257,306,-1048,-1269
878,-1249,-231,350,-1355,-1014
721,-1160,-122,368,-1655,-801
833,-1099,23,291,-1669,-832
1203,-1040,128,98,-1470,-1004
1515,-1104,72,-136,-1174,-1159
1822,-1162,-41,-294,-928,-1266
2012,-1323,-203,-343,-836,-1269
2079,-1377,-347,-277,-1013,-1040
1935,-1363,-322,-161,-1281,-617
1570,-1469,-243,-108,-1538,-201
1206,-1605,-295,-115,-1792,59
1148,-1670,-229,-75,-1997,87
1391,-1672,-123,-93,-1802,-153
1588,-1727,-214,-209,-1446,-476
1646,-1821,-416,-263,-1258,-701
1694,-1845,-611,-198,-1208,-783
1669,-1764,-679,-70,-1351,-666
1670,-1650,-586,30,-1496,-494
1975,-1595,-380,16,-1386,-505
2501,-1550,-313,-98,-1109,-632
2958,-1631,-416,-227,-808,-676
3162,-1711,-539,-270,-699,-530
3166,-1725,-581,-187,-802,-239
2963,-1653,-538,-60,-925,97
2641,-1549,-403,27,-1014,380
2372,-1468,-294,26,-1026,518
2198,-1438,-278,-36,-908,492
2252,-1438,-356,-134,-701,339
2472,-1492,-535,-230,-451,212
2519,-1581,-728,-242,-290,238
2436,-1550,-766,-151,-233,335
2295,-1453,-678,-48,-147,404
2243,-1288,-553,14,-26,430
2214,-1142,-439,39,97,460
2107,-990,-361,31,154,532
2089,-834,-232,13,189,586
2213,-729,-119,-84,290,617
2254,-743,-122,-258,392,696
2138,-868,-266,-411,404,819
1989,-999,-434,-496,326,965
1845,-1099,-564,-525,186,1137
1671,-1149,-578,-537,46,1294
1458,-1170,-569,-599,73,1359
1234,-1204,-608,-706,239,1317
1130,-1252,-693,-811,483,1169
1276,-1287,-791,-917,718,998
1474,-1305,-839,-974,776,965
1546,-1330,-835,-959,713,1041
1547,-1332,-850,-948,689,1131
1403,-1404,-893,-976,721,1246
1145,-1543,-1017,-1007,744,1342
1015,-1694,-1159,-961,734,1396
1009,-1811,-1214,-806,696,1454
849,-1883,-1201,-619,665,1551
588,-1878,-1126,-445,596,1627
363,-1833,-944,-331,512,1614
239,-1843,-785,-366,541,1465
220,-1877,-796,-487,657,1260
302,-1923,-844,-581,686,1111
453,-1962,-855,-635,636,1054
559,-1990,-846,-642,570,1049
461,-1978,-788,-603,516,1023
232,-1999,-746,-607,602,876
201,-2053,-791,-659,823,592
319,-2105,-895,-676,915,394
506,-2136,-985,-655,783,406
655,-2190,-1075,-614,612,541
671,-2224,-1163,-526,385,749
624,-2180,-1139,-385,118,960
404,-2169,-1004,-262,0,1068
134,-2126,-873,-212,53,1016
-88,-2114,-760,-224,189,806
-241,-2180,-773,-320,432,496
-300,-2338,-963,-443,559,265
-272,-2497,-1209,-500,471,209
-262,-2629,-1387,-462,282,267
-345,-2769,-1493,-351,98,320
-449,-2813,-1462,-146,-52,290
-513,-2761,-1298,92,-132,151
-494,-2632,-1105,265,-187,-21
-399,-2517,-939,347,-252,-158
-235,-2486,-890,320,-248,-265
-67,-2539,-928,282,-200,-357
37,-2569,-963,303,-161,-415
169,-2590,-927,353,-173,-430
319,-2600,-855,388,-197,-422
403,-2599,-844,418,-251,-398
444,-2595,-864,476,-381,-392
502,-2577,-904,525,-403,-458
592,-2567,-1002,544,-255,-587
680,-2558,-1096,600,-155,-702
782,-2582,-1155,680,-123,-742
874,-2562,-1122,759,-70,-719
942,-2529,-1065,862,-62,-680
969,-2449,-976,996,-193,-574
873,-2350,-866,1084,-307,-460
776,-2215,-723,1125,-352,-431
768,-2049,-584,1100,-309,-509
800,-1949,-531,996,-250,-603
845,-1887,-610,858,-244,-667
948,-1878,-723,758,-246,-690
1043,-1933,-831,716,-208,-667
1134,-1957,-933,752,-216,-613
1140,-1930,-938,907,-275,-534
1019,-1857,-888,1099,-329,-465
885,-1755,-807,1254,-333,-476
873,-1592,-660,1355,-290,-539
977,-1455,-479,1378,-251,-585
1070,-1426,-334,1304,-250,-562
1154,-1480,-255,1185,-296,-493
1278,-1497,-154,1068,-368,-393
1253,-1511,-104,925,-445,-243
1162,-1511,-118,783,-495,-187
1137,-1508,-180,667,-424,-280
1080,-1532,-355,598,-324,-396
1034,-1536,-557,593,-285,-453
1137,-1532,-633,620,-260,-463
1145,-1574,-640,665,-185,-404
1065,-1557,-588,751,-215,-324
1039,-1530,-416,843,-283,-289
1030,-1508,-232,873,-337,-258
1043,-1415,-93,866,-471,-206
1076,-1258,59,834,-628,-148
1081,-1078,227,696,-686,-114
1029,-1013,244,439,-543,-176
925,-1039,7,164,-325,-326
850,-1155,-430,29,-208,-471
1033,-1215,-791,73,-135,-566
1342,-1211,-900,204,-56,-555
1442,-1169,-873,359,-6,-440
1407,-1044,-727,514,81,-338
1309,-911,-467,588,156,-288
1206,-826,-269,510,236,-265
1186,-825,-149,362,273,-260
1183,-917,-100,199,221,-217
1215,-1033,-80,50,107,-140
1332,-1159,-35,-54,31,-84
1511,-1225,12,-119,12,-61
1782,-1213,85,-184,63,-70
2165,-1238,150,-282,234,-128
2558,-1318,100,-392,524,-209
2890,-1440,-6,-443,832,-247
3155,-1525,-51,-406,1072,-146
3216,-1491,12,-335,1231,165
2948,-1391,102,-316,1262,568
2575,-1362,180,-354,1212,821
2324,-1368,237,-414,1204,890
2165,-1329,302,-487,1208,954
1960,-1388,299,-601,1246,992
1663,-1534,107,-742,1353,906
1373,-1650,-109,-819,1421,808
1214,-1720,-281,-834,1468,707
1189,-1804,-496,-851,1563,620
1201,-1873,-653,-845,1625,618
1147,-1927,-702,-785,1578,760
937,-1971,-642,-696,1409,1020
660,-1979,-506,-625,1270,1229
424,-1972,-381,-601,1256,1246
235,-1970,-318,-601,1312,1128
46,-2011,-355,-622,1344,996
-80,-2050,-469,-623,1299,850
-135,-2090,-575,-599,1258,683
-147,-2155,-709,-597,1208,572
-247,-2245,-817,-551,1091,556
-392,-2262,-852,-438,957,543
-364,-2204,-759,-304,845,472
-300,-2149,-619,-219,741,421
-360,-2088,-536,-173,612,408
-403,-1994,-426,-138,508,340
-296,-1914,-305,-147,473,224
-172,-1874,-258,-213,464,147
-168,-1857,-284,-280,419,109
-199,-1882,-353,-320,342,57
-166,-1933,-445,-347,272,4
-224,-1975,-525,-333,181,10
-416,-1994,-557,-265,38,11
-554,-1960,-542,-176,-83,-72
-631,-1908,-524,-116,-160,-207
-662,-1887,-573,-102,-220,-357
-607,-1862,-651,-95,-304,-496
-462,-1829,-698,-60,-366,-620
-343,-1838,-760,-33,-362,-725
-274,-1836,-808,22,-393,-816
-165,-1786,-790,142,-494,-908
47,-1703,-709,251,-575,-995
264,-1611,-583,300,-635,-1026
325,-1562,-479,310,-745,-985
296,-1562,-434,291,-875,-930
230,-1576,-397,256,-1009,-894
145,-1585,-404,221,-1157,-899
180,-1573,-413,176,-1248,-972
373,-1546,-435,118,-1259,-1081
621,-1571,-551,66,-1169,-1199
979,-1579,-637,73,-1048,-1316
1355,-1517,-628,111,-975,-1342
1491,-1539,-589,153,-983,-1195
1316,-1512,-466,215,-1196,-891
1000,-1498,-303,220,-1443,-607
734,-1564,-207,168,-1612,-484
524,-1671,-185,104,-1751,-462
334,-1711,-244,40,-1884,-526
277,-1653,-310,2,-1967,-682
562,-1583,-350,-92,-1837,-929
1146,-1613,-495,-243,-1517,-1208
1711,-1675,-689,-325,-1233,-1365
2115,-1712,-835,-296,-1045,-1344
2299,-1757,-877,-196,-1063,-1111
2237,-1725,-750,5,-1344,-699
1930,-1604,-504,149,-1720,-258
1543,-1542,-356,124,-1937,23
1348,-1516,-217,28,-1969,76
1388,-1521,-107,-117,-1822,-83
1768,-1560,-179,-344,-1451,-395
2188,-1671,-405,-536,-1101,-593
2380,-1812,-673,-596,-904,-595
2432,-1895,-862,-514,-894,-466
2386,-1870,-889,-323,-1012,-245
2242,-1785,-744,-133,-1127,-23
2120,-1663,-548,-36,-1186,115
2113,-1564,-382,-79,-1139,149
2150,-1561,-388,-226,-944,113
2237,-1615,-560,-363,-696,37
2418,-1667,-725,-432,-468,-22
2539,-1688,-828,-432,-266,-5
2552,-1640,-882,-386,-119,73
2500,-1579,-868,-326,-24,182
2413,-1527,-839,-285,59,304
2335,-1454,-797,-262,124,415
2336,-1416,-774,-267,196,516
2304,-1421,-783,-302,274,620
2173,-1422,-814,-338,340,703
2031,-1440,-872,-361,426,769
1965,-1439,-914,-384,518,819
1861,-1435,-917,-396,620,858
1692,-1450,-926,-407,753,853
1570,-1443,-935,-408,864,824
1465,-1411,-908,-390,899,823
1399,-1366,-839,-367,906,833
1339,-1327,-788,-370,932,852
1276,-1305,-775,-382,959,896
1190,-1285,-734,-397,986,935
1062,-1294,-693,-442,1029,935
918,-1341,-668,-479,1031,928
772,-1413,-702,-508,1005,900
730,-1454,-751,-523,972,840
775,-1479,-793,-523,933,789
840,-1520,-824,-523,889,798
790,-1565,-878,-516,861,875
721,-1547,-878,-458,705,962
756,-1492,-778,-392,471,1048
748,-1432,-715,-369,308,1143
689,-1395,-692,-381,212,1186
564,-1399,-694,-416,206,1142
465,-1412,-729,-469,295,1020
413,-1436,-772,-518,378,876
348,-1440,-774,-569,468,772
332,-1461,-736,-665,656,675
326,-1567,-800,-798,881,577
368,-1689,-860,-857,907,532
494,-1807,-832,-854,804,541
555,-1932,-891,-869,640,646
516,-2018,-964,-858,371,840
387,-2068,-977,-836,127,996
170,-2130,-1009,-868,143,981
-76,-2280,-1182,-927,396,739
-275,-2496,-1486,-948,708,380
-364,-2704,-1814,-878,851,124
-377,-2845,-2054,-735,702,94
-419,-2947,-2175,-538,420,216
-504,-3015,-2131,-293,111,318
-595,-2999,-1925,-26,-82,293
-588,-2860,-1623,199,-111,108
-468,-2728,-1334,308,-78,-130
-387,-2667,-1220,318,-82,-306
-335,-2662,-1241,311,-128,-424
-173,-2657,-1306,330,-180,-522
-26,-2642,-1340,394,-278,-575
91,-2619,-1282,476,-366,-612
244,-2597,-1197,521,-382,-652
361,-2648,-1178,555,-371,-654
454,-2668,-1163,638,-416,-614
592,-2633,-1145,710,-448,-598
720,-2606,-1172,764,-449,-593
782,-2608,-1202,842,-424,-614
842,-2615,-1256,944,-343,-686
912,-2581,-1309,1076,-291,-745
961,-2516,-1268,1220,-279,-731
935,-2451,-1222,1329,-314,-637
863,-2378,-1127,1434,-461,-532
800,-2272,-993,1514,-576,-516
823,-2133,-883,1521,-589,-581
891,-2024,-785,1474,-553,-663
977,-1919,-713,1386,-458,-744
1044,-1859,-734,1272,-356,-805
1046,-1865,-853,1188,-324,-812
1126,-1905,-1041,1179,-292,-814
1246,-1942,-1213,1287,-283,-799
1284,-1877,-1261,1506,-326,-711
1257,-1743,-1177,1745,-386,-584
1182,-1580,-981,1917,-451,-473
1165,-1386,-706,1990,-436,-426
1096,-1265,-429,1930,-256,-430
1004,-1254,-275,1777,-44,-493
1004,-1234,-201,1645,52,-585
1045,-1214,-130,1563,10,-629
1147,-1144,-73,1471,-77,-645
1238,-1061,-13,1367,-171,-566
1209,-1010,31,1240,-271,-480
1129,-1001,-26,1125,-331,-462
1069,-972,-67,1083,-383,-486
1057,-912,-139,1019,-360,-513
1192,-840,-144,953,-340,-521
1276,-767,-109,885,-277,-507
1232,-713,-83,770,-155,-506
1170,-717,-113,633,36,-564
1174,-697,-117,529,115,-591
1246,-644,-24,435,135,-569
1274,-652,49,292,131,-509
1288,-700,78,153,43,-438
1287,-750,103,44,-72,-379
1286,-825,80,-47,-193,-329
1371,-893,49,-114,-336,-267
1469,-937,12,-164,-457,-179
1611,-986,-38,-227,-467,-97
1733,-1042,-30,-304,-374,-29
1793,-1109,-38,-388,-176,-35
1916,-1212,-80,-453,156,-148
2194,-1266,-100,-476,474,-284
2557,-1256,-45,-497,701,-326
2862,-1282,-10,-577,884,-203
2942,-1365,-55,-658,980,46
2872,-1428,-77,-670,953,312
2690,-1479,-90,-627,831,585
2458,-1474,-49,-579,696,830
2219,-1440,34,-575,644,1006
1912,-1464,44,-640,743,1071
1622,-1547,-51,-729,959,994
1440,-1664,-202,-779,1134,853
1323,-1784,-401,-782,1223,770
1329,-1828,-473,-725,1247,771
1387,-1827,-429,-668,1279,822
1349,-1837,-336,-616,1282,909
1249,-1836,-243,-552,1250,976
1128,-1825,-151,-495,1204,1013
992,-1778,-69,-466,1165,1046
784,-1718,-5,-485,1187,1049
572,-1691,-16,-554,1249,976
498,-1703,-91,-655,1312,834
514,-1764,-219,-755,1316,731
589,-1788,-337,-825,1233,736
639,-1869,-423,-865,1131,817
556,-1932,-499,-846,1073,877
418,-1969,-553,-757,1059,850
390,-1955,-540,-643,1011,803
337,-1923,-515,-548,915,822
210,-1902,-495,-503,792,863
116,-1931,-499,-507,734,833
50,-1985,-560,-526,758,734
19,-2024,-603,-514,758,630
33,-2015,-585,-476,721,544
69,-2006,-559,-451,694,475
154,-2012,-549,-434,669,424
228,-2008,-529,-395,656,402
239,-1978,-507,-363,659,391
209,-1996,-512,-346,701,357
128,-2020,-541,-322,770,292
-91,-2054,-615,-293,853,203
-343,-2118,-720,-267,928,90
-593,-2187,-802,-210,863,6
-788,-2197,-805,-132,689,-82
-814,-2199,-804,-71,491,-223
-722,-2118,-810,-24,282,-359
-608,-2062,-846,12,99,-456
-409,-2005,-947,27,-37,-574
-76,-1971,-1018,68,-119,-661
100,-1931,-985,163,-238,-647
161,-1791,-895,262,-415,-598
258,-1691,-790,316,-613,-551
333,-1618,-669,337,-789,-491
296,-1527,-583,326,-828,-477
245,-1458,-549,300,-811,-547
238,-1415,-496,270,-776,-655
216,-1413,-532,225,-699,-770
247,-1427,-652,208,-680,-877
369,-1478,-718,258,-742,-911
479,-1480,-642,340,-858,-845
491,-1465,-520,395,-998,-767
501,-1582,-517,383,-1124,-714
625,-1618,-470,380,-1286,-664
650,-1633,-348,387,-1401,-633
592,-1615,-313,367,-1478,-677
494,-1560,-316,317,-1523,-751
511,-1568,-363,230,-1474,-839
851,-1547,-345,176,-1324,-1003
1206,-1490,-344,118,-1153,-1119
1304,-1534,-379,71,-1145,-1086
1367,-1571,-402,79,-1255,-984
1400,-1604,-413,90,-1367,-824
1260,-1615,-306,135,-1573,-604
945,-1555,-169,172,-1764,-443
701,-1465,-81,150,-1792,-461
583,-1372,-42,57,-1788,-574
630,-1284,-81,-93,-1767,-701
1043,-1296,-149,-285,-1644,-878
1739,-1441,-227,-485,-1428,-1041
2259,-1659,-419,-643,-1207,-1043
2655,-1906,-570,-701,-1170,-814
2838,-2079,-507,-565,-1415,-423
2633,-2145,-389,-360,-1709,-21
2190,-2124,-268,-186,-1840,173
1816,-2027,-204,-125,-1706,130
1523,-1995,-215,-164,-1567,60
1213,-2013,-366,-253,-1483,-6
1045,-1974,-555,-313,-1408,-154
1444,-1809,-494,-331,-1226,-431
2245,-1783,-415,-471,-691,-737
2586,-1934,-684,-598,-343,-799
2773,-1985,-881,-526,-420,-610
2993,-1943,-915,-403,-646,-248
2866,-1946,-880,-293,-765,151
2576,-1933,-830,-207,-681,320
2430,-1897,-845,-176,-457,276
2370,-1878,-899,-161,-261,258
2268,-1858,-941,-139,-81,297
2121,-1808,-939,-81,81,309
2021,-1698,-854,-15,259,284
2021,-1585,-731,12,431,251
2024,-1504,-657,1,534,264
1977,-1473,-685,-28,551,352
1975,-1431,-731,-25,513,506
1858,-1395,-658,-36,488,646
1607,-1389,-690,-105,597,665
1381,-1400,-750,-131,648,649
1203,-1367,-763,-131,622,658
1018,-1315,-730,-153,619,683
906,-1228,-637,-183,630,692
879,-1131,-523,-227,628,668
949,-1043,-397,-301,606,646
1124,-949,-289,-411,607,622
1197,-930,-343,-571,642,603
1203,-1009,-495,-728,707,602
1259,-1064,-606,-827,791,591
1254,-1150,-712,-897,894,574
1163,-1249,-826,-953,983,585
1104,-1341,-936,-942,961,645
1068,-1369,-920,-881,829,742
1044,-1325,-831,-849,749,792
1049,-1308,-752,-852,723,809
1111,-1283,-754,-897,689,819
1120,-1308,-768,-983,656,841
936,-1484,-925,-1146,871,791
779,-1702,-1172,-1262,1097,682
776,-1853,-1315,-1226,1037,642
819,-1936,-1391,-1143,912,687
750,-2002,-1425,-1036,794,802
621,-1984,-1351,-882,691,877
470,-1928,-1190,-759,665,842
311,-1908,-1143,-741,716,705
244,-1943,-1224,-793,814,517
224,-2086,-1439,-851,916,363
271,-2174,-1632,-827,911,290
325,-2226,-1661,-724,833,301
275,-2277,-1565,-594,708,370
136,-2260,-1414,-446,536,420
5,-2206,-1264,-319,355,430
-42,-2128,-1142,-279,230,410
-53,-2159,-1126,-336,200,332
-146,-2294,-1309,-406,216,226
-123,-2391,-1477,-360,199,98
48,-2401,-1463,-232,169,-5
105,-2396,-1387,-105,120,-47
45,-2408,-1281,6,24,-58
-15,-2390,-1197,87,-96,-78
-16,-2413,-1200,129,-198,-125
-26,-2450,-1223,174,-309,-159
-37,-2499,-1242,223,-375,-238
26,-2524,-1298,251,-366,-390
154,-2587,-1401,317,-375,-511
292,-2567,-1377,453,-481,-529
445,-2524,-1319,549,-516,-568
595,-2502,-1272,640,-538,-612
735,-2469,-1232,737,-570,-623
794,-2467,-1231,813,-598,-562
773,-2449,-1217,918,-658,-524
749,-2396,-1234,1000,-657,-566
775,-2381,-1261,1063,-633,-623
803,-2353,-1246,1134,-614,-644
795,-2305,-1210,1205,-614,-648
826,-2244,-1122,1254,-601,-666
957,-2169,-1026,1275,-572,-685
1045,-2147,-977,1267,-536,-690
1031,-2128,-981,1283,-528,-704
1057,-2037,-949,1318,-548,-721
1108,-1951,-897,1311,-552,-722
1118,-1891,-879,1284,-577,-695
1135,-1821,-864,1267,-647,-655
1207,-1771,-844,1242,-678,-614
1284,-1795,-878,1215,-664,-535
1391,-1853,-971,1173,-597,-474
1480,-1877,-1009,1236,-519,-441
1474,-1816,-976,1359,-444,-418
1329,-1740,-879,1497,-357,-410
1227,-1624,-719,1604,-210,-526
1230,-1467,-588,1650,-48,-679
1229,-1347,-444,1634,-46,-697
1224,-1252,-307,1523,-148,-616
1231,-1197,-235,1343,-207,-549
1187,-1128,-186,1143,-303,-498
1153,-1042,-136,942,-385,-494
1181,-985,-148,712,-359,-539
1149,-999,-276,516,-312,-574
1140,-1009,-451,407,-249,-624
1225,-1046,-639,401,-150,-719
1332,-1059,-802,477,-54,-736
1429,-1016,-797,637,-12,-658
1433,-915,-636,804,16,-528
1276,-802,-427,898,49,-418
1111,-666,-189,908,61,-389
1132,-558,-19,802,41,-419
1282,-534,42,607,3,-415
1307,-604,69,375,-83,-311
1283,-818,-91,148,-56,-274
1330,-855,-126,185,4,-422
1553,-873,-109,182,-14,-576
1846,-922,-127,125,3,-561
2083,-861,-38,124,187,-490
2379,-813,82,46,347,-416
2739,-878,161,-102,488,-232
2932,-942,210,-232,629,42
2778,-969,205,-304,671,317
2523,-992,171,-356,620,498
2363,-1013,150,-407,583,587
2247,-1008,111,-499,564,681
2078,-1046,46,-621,581,773
1812,-1163,-94,-736,640,804
1649,-1272,-249,-795,710,752
1673,-1362,-375,-803,779,690
1834,-1428,-467,-801,847,706
1946,-1497,-481,-787,914,813
1848,-1586,-464,-765,970,958
1703,-1598,-417,-715,1044,1037
1597,-1562,-334,-659,1118,1051
1510,-1525,-231,-633,1176,1070
1336,-1498,-156,-647,1232,1098
1068,-1496,-137,-691,1272,1097
853,-1536,-168,-756,1276,1034
806,-1628,-274,-824,1232,935
829,-1784,-462,-903,1170,866
838,-1899,-613,-902,1082,874
837,-1977,-681,-852,1109,872
875,-1989,-692,-763,1173,816
890,-1967,-689,-661,1180,805
742,-1982,-688,-569,1134,863
557,-1977,-692,-510,1066,899
418,-1972,-684,-472,997,910
221,-2000,-687,-449,919,917
55,-2024,-698,-451,867,870
-79,-2083,-757,-476,863,776
-174,-2119,-797,-479,827,688
-187,-2121,-790,-458,770,600
-112,-2104,-774,-439,763,493
5,-2116,-741,-412,791,373
39,-2147,-747,-379,797,292
30,-2199,-791,-306,732,257
127,-2188,-738,-189,560,271
214,-2105,-609,-82,339,331
164,-2037,-534,-40,172,380
76,-2032,-535,-54,118,357
14,-2055,-575,-66,93,302
-120,-2085,-607,-57,52,245
-305,-2111,-678,-42,75,136
-432,-2106,-735,4,52,-15
-523,-2038,-724,86,-27,-171
-548,-1937,-719,140,-95,-340
-426,-1815,-704,147,-123,-522
-257,-1753,-716,110,-119,-621
-129,-1714,-746,86,-168,-678
-65,-1641,-731,118,-271,-742
12,-1541,-669,143,-319,-825
114,-1488,-681,122,-309,-919
187,-1487,-736,120,-367,-979
197,-1469,-716,175,-500,-988
130,-1449,-654,230,-655,-963
4,-1447,-603,262,-833,-952
-1,-1392,-531,277,-976,-1013
179,-1328,-446,260,-1031,-1148
513,-1306,-410,183,-1000,-1298
872,-1326,-454,86,-917,-1403
1135,-1388,-555,24,-876,-1415
1219,-1502,-684,38,-915,-1315
1148,-1599,-787,136,-1031,-1127
1035,-1639,-706,283,-1171,-950
890,-1579,-549,402,-1382,-813
702,-1517,-366,414,-1601,-686
654,-1555,-246,324,-1671,-687
770,-1549,-210,208,-1582,-858
985,-1559,-301,107,-1389,-1122
1315,-1556,-452,45,-1187,-1340
1652,-1536,-521,11,-1078,-1395
1893,-1550,-627,-7,-1077,-1279
1954,-1587,-664,45,-1247,-1004
1763,-1562,-572,129,-1474,-673
1416,-1578,-529,135,-1626,-421
1126,-1650,-523,107,-1760,-311
1046,-1648,-461,88,-1794,-376
1152,-1576,-451,33,-1709,-554
1460,-1525,-499,-52,-1545,-742
2008,-1502,-507,-139,-1243,-917
2450,-1506,-570,-211,-970,-997
2720,-1559,-677,-229,-850,-871
2699,-1636,-689,-157,-968,-508
2474,-1627,-572,-38,-1251,-100
2263,-1621,-429,10,-1432,164
2241,-1626,-314,-15,-1441,234
2381,-1649,-302,-86,-1320,199
2514,-1693,-364,-177,-1143,151
2564,-1751,-522,-257,-868,100
2516,-1828,-706,-279,-622,72
2407,-1875,-849,-215,-502,109
2315,-1807,-821,-90,-479,210
2309,-1673,-689,-2,-432,296
2220,-1600,-611,9,-341,349
2118,-1514,-569,-10,-223,347
2139,-1427,-549,-60,-85,312
2176,-1396,-614,-157,45,310
2157,-1442,-798,-263,231,285
2124,-1423,-909,-239,338,317
2057,-1333,-850,-167,391,401
1992,-1218,-785,-161,505,467
1882,-1168,-743,-165,581,551
1768,-1116,-671,-158,604,614
1681,-1102,-625,-171,586,665
1596,-1096,-612,-229,485,761
1499,-1111,-629,-317,371,885
1370,-1166,-657,-421,333,955
1258,-1228,-719,-519,428,913
1186,-1323,-818,-580,570,808
1201,-1365,-929,-608,670,690
1327,-1374,-957,-591,690,658
1398,-1347,-923,-568,683,731
1322,-1361,-879,-560,704,813
1205,-1385,-818,-546,724,843
1117,-1405,-787,-552,738,831
1097,-1412,-756,-573,756,827
1002,-1472,-756,-634,768,835
849,-1553,-856,-716,821,814
787,-1623,-943,-718,817,765
796,-1626,-939,-669,787,711
771,-1599,-940,-647,815,670
756,-1599,-956,-628,802,637
827,-1531,-913,-613,760,619
825,-1541,-928,-642,732,636
719,-1543,-971,-674,695,678
569,-1575,-980,-688,704,662
561,-1592,-978,-708,721,580
640,-1654,-998,-734,680,532
729,-1719,-1045,-746,575,559
821,-1760,-1066,-738,425,663
856,-1783,-1083,-741,273,818
696,-1855,-1117,-730,164,938
438,-1933,-1144,-687,181,912
282,-1966,-1139,-612,279,747
198,-1987,-1127,-546,379,571
115,-2041,-1169,-550,467,436
64,-2134,-1289,-577,458,365
34,-2229,-1401,-586,351,401
18,-2310,-1440,-547,241,425
2,-2392,-1465,-479,207,355
-1,-2439,-1453,-366,223,231
52,-2428,-1361,-247,186,128
97,-2426,-1324,-188,89,95
79,-2481,-1355,-144,-25,102
48,-2517,-1342,-61,-115,65
-16,-2524,-1326,27,-148,-27
-63,-2530,-1338,100,-152,-157
-45,-2540,-1359,167,-191,-272
14,-2544,-1362,249,-261,-347
55,-2517,-1316,352,-333,-421
115,-2477,-1309,442,-370,-516
221,-2416,-1282,532,-440,-590
429,-2355,-1219,595,-467,-647
663,-2343,-1228,620,-439,-675
792,-2368,-1266,675,-434,-665
950,-2360,-1250,781,-452,-640
1107,-2309,-1195,879,-490,-565
1138,-2262,-1125,975,-523,-468
1043,-2224,-1097,1059,-507,-419
953,-2139,-1077,1129,-515,-430
978,-2093,-1083,1169,-495,-478
1112,-2013,-1089,1183,-454,-528
1231,-2011,-1081,1174,-402,-526
1368,-2021,-1109,1155,-321,-489
1387,-2051,-1139,1186,-296,-424
1317,-2018,-1107,1272,-318,-341
1157,-1993,-1044,1354,-349,-252
985,-1927,-951,1422,-401,-212
880,-1848,-830,1457,-433,-210
797,-1825,-710,1431,-415,-238
787,-1800,-655,1357,-378,-317
918,-1774,-604,1281,-352,-430
1131,-1752,-562,1182,-324,-489
1264,-1735,-553,1095,-342,-476
1228,-1684,-576,1048,-399,-445
1168,-1684,-688,1033,-422,-453
1211,-1660,-840,1102,-424,-470
1224,-1642,-823,1240,-436,-396
1217,-1619,-825,1316,-379,-393
1235,-1518,-740,1457,-324,-417
1168,-1387,-569,1542,-318,-387
1077,-1257,-388,1519,-287,-386
1032,-1169,-309,1384,-189,-452
1032,-1128,-355,1223,-137,-503
1041,-1114,-406,1089,-96,-507
1122,-1093,-442,1018,-74,-531
1251,-1017,-390,987,-126,-522
1344,-987,-310,920,-147,-437
1402,-965,-232,839,-177,-315
1405,-956,-163,777,-226,-209
1360,-930,-93,723,-239,-145
1271,-910,-34,669,-202,-128
1160,-874,-13,585,-144,-145
1118,-856,-26,473,-60,-203
1204,-811,-10,363,-20,-221
1284,-962,-84,145,-7,-152
1221,-1084,-190,133,29,-107
1234,-1048,-84,177,-34,-206
1370,-1018,-86,96,-43,-197
1388,-1047,-31,58,-43,-108
1390,-1025,-20,-44,-83,-34
1408,-1049,-30,-126,-57,7
1406,-1088,-56,-181,-1,5
1498,-1078,-49,-233,46,-21
1703,-1111,-26,-310,122,-45
1894,-1131,-40,-405,204,-34
2017,-1173,-48,-477,288,-16
2100,-1222,-65,-539,394,3
2246,-1216,-34,-600,534,25
2393,-1260,-6,-688,685,84
2493,-1319,-33,-776,793,204
2500,-1376,-64,-823,822,338
2476,-1384,-50,-834,831,432
2418,-1411,-93,-877,901,520
2304,-1489,-143,-925,982,616
2156,-1612,-212,-968,1041,716
1920,-1758,-366,-971,1068,803
1700,-1849,-483,-907,1062,850
1588,-1867,-510,-860,1104,875
1458,-1920,-562,-834,1237,871
1284,-1969,-598,-770,1362,810
1174,-1966,-553,-705,1465,712
1099,-2001,-503,-676,1516,665
962,-2035,-482,-650,1427,705
813,-2031,-436,-603,1303,741
694,-2002,-409,-580,1253,704
594,-1989,-423,-566,1241,616
550,-1938,-402,-544,1250,507
590,-1859,-374,-565,1262,422
574,-1869,-429,-615,1232,395
481,-1926,-569,-649,1166,392
475,-1975,-670,-645,1072,387
499,-2011,-735,-630,990,426
448,-2071,-773,-588,972,445
381,-2071,-784,-510,1004,405
404,-2037,-710,-409,990,355
463,-1980,-575,-327,961,327
376,-1953,-518,-314,934,332
285,-1942,-483,-312,842,346
280,-1919,-391,-309,695,369
225,-1894,-384,-340,563,374
196,-1944,-523,-393,482,328
258,-2028,-680,-414,430,265
322,-2096,-804,-382,414,213
389,-2103,-839,-306,453,151
417,-2110,-810,-231,516,111
315,-2122,-789,-161,470,139
178,-2093,-713,-69,336,189
108,-2009,-587,-8,228,195
17,-1958,-523,-2,156,162
-127,-1949,-546,-6,84,100
-292,-1943,-616,9,-8,11
-374,-1921,-655,36,-113,-98
-313,-1834,-638,54,-154,-225
-268,-1793,-688,40,-180,-322
-170,-1735,-724,60,-259,-434
-4,-1650,-700,74,-296,-540
101,-1568,-687,66,-335,-596
135,-1491,-678,80,-382,-612
56,-1450,-676,97,-439,-618
-55,-1420,-674,105,-482,-689
-135,-1370,-598,147,-561,-766
-237,-1323,-523,164,-726,-800
-275,-1263,-408,158,-923,-832
-171,-1218,-326,82,-987,-942
-3,-1250,-386,-41,-999,-1102
193,-1270,-499,-108,-1004,-1242
393,-1285,-601,-134,-989,-1310
581,-1327,-701,-148,-1006,-1313
776,-1346,-723,-112,-1068,-1269
971,-1340,-687,-50,-1171,-1208
1001,-1307,-545,9,-1291,-1069
876,-1357,-465,-31,-1352,-918
802,-1511,-518,-59,-1430,-872
849,-1532,-533,6,-1583,-872
1043,-1444,-402,47,-1692,-856
1248,-1431,-376,-46,-1641,-860
1358,-1548,-575,-167,-1532,-904
1538,-1639,-755,-182,-1397,-973
1769,-1663,-853,-155,-1342,-952
1745,-1700,-905,-109,-1430,-751
1489,-1727,-897,-35,-1620,-476
1355,-1737,-761,12,-1775,-327
1433,-1690,-621,6,-1836,-347
1560,-1660,-556,-47,-1793,-446
1748,-1651,-583,-152,-1621,-594
2061,-1656,-655,-259,-1377,-750
2324,-1701,-784,-324,-1184,-803
2525,-1729,-885,-292,-1101,-714
2645,-1734,-922,-213,-1130,-469
2620,-1737,-877,-118,-1225,-163
2618,-1696,-736,-43,-1246,65
2669,-1683,-602,-28,-1180,199
2705,-1660,-493,-50,-1101,269
2646,-1623,-458,-123,-995,298
2467,-1630,-507,-216,-875,312
2295,-1687,-646,-314,-733,320
2151,-1729,-814,-351,-605,311
2026,-1744,-959,-311,-501,279
2038,-1715,-1031,-254,-354,233
2170,-1678,-1059,-224,-176,203
2268,-1655,-1098,-211,-48,239
2275,-1612,-1085,-174,36,322
2268,-1558,-1052,-145,96,414
2268,-1493,-1013,-108,146,540
2107,-1421,-913,-71,167,682
1953,-1348,-831,-75,223,755
1813,-1313,-796,-83,277,810
1698,-1283,-800,-79,337,837
1670,-1224,-718,-71,439,817
1611,-1189,-634,-102,568,795
1438,-1185,-622,-169,627,816
1363,-1230,-657,-302,710,739
1430,-1265,-767,-430,787,680
1397,-1320,-855,-510,794,724
1269,-1352,-921,-558,803,778
1207,-1363,-956,-588,825,790
1236,-1360,-971,-585,798,820
1255,-1320,-936,-542,714,911
1236,-1265,-886,-489,607,1024
1184,-1224,-797,-444,506,1139
1086,-1140,-613,-429,458,1189
912,-1149,-550,-549,648,1094
706,-1279,-667,-753,944,912
565,-1451,-869,-914,1149,715
605,-1595,-1094,-992,1159,605
686,-1641,-1191,-974,1022,649
714,-1712,-1281,-944,965,742
676,-1786,-1352,-862,895,820
633,-1763,-1306,-702,773,884
593,-1689,-1204,-588,652,961
445,-1643,-1109,-568,533,1024
264,-1679,-1155,-660,574,966
120,-1819,-1316,-782,720,824
114,-1957,-1465,-826,805,646
183,-2026,-1518,-788,763,572
188,-2068,-1490,-705,599,619
133,-2083,-1423,-609,415,685
73,-2095,-1370,-512,282,694
88,-2063,-1285,-422,183,654
152,-2007,-1188,-363,83,612
122,-1967,-1107,-337,31,558
30,-2009,-1120,-379,132,393
58,-2113,-1256,-432,276,178
123,-2231,-1405,-415,273,86
65,-2316,-1504,-350,128,144
-68,-2380,-1570,-267,-7,191
-170,-2408,-1586,-168,-110,139
-276,-2418,-1610,-73,-152,39
-364,-2412,-1618,18,-206,-80
-345,-2385,-1599,83,-246,-219
-224,-2368,-1585,126,-243,-369
-89,-2398,-1624,148,-217,-496
26,-2421,-1654,198,-249,-555
138,-2446,-1637,281,-339,-552
284,-2444,-1596,380,-437,-558
520,-2425,-1545,491,-496,-577
731,-2397,-1454,576,-508,-551
786,-2427,-1452,641,-449,-564
796,-2472,-1536,721,-411,-617
895,-2459,-1569,830,-409,-651
1007,-2450,-1561,915,-415,-601
1040,-2475,-1558,981,-408,-505
969,-2530,-1562,1067,-391,-421
914,-2526,-1515,1216,-409,-390
891,-2431,-1424,1384,-424,-421
883,-2300,-1309,1503,-381,-496
876,-2219,-1265,1534,-266,-577
901,-2205,-1286,1554,-194,-641
986,-2146,-1237,1622,-206,-666
1056,-1997,-1157,1696,-265,-640
1091,-1884,-1071,1729,-322,-582
1084,-1796,-953,1717,-320,-523
979,-1707,-821,1683,-308,-492
911,-1614,-706,1613,-306,-510
916,-1528,-606,1510,-310,-541
881,-1467,-550,1386,-288,-583
848,-1450,-580,1255,-261,-647
925,-1439,-643,1159,-299,-702
1069,-1450,-743,1118,-343,-718
1185,-1535,-960,1141,-330,-705
1325,-1579,-1090,1273,-334,-648
1399,-1576,-1076,1501,-379,-537
1334,-1455,-882,1751,-420,-405
1190,-1249,-576,1904,-364,-390
1127,-981,-222,1931,-241,-484
1079,-910,-27,1763,-66,-548
1104,-919,-13,1548,23,-609
1110,-939,15,1402,3,-628
1113,-985,-88,1214,-6,-600
1186,-1017,-215,1075,-119,-538
1270,-964,-203,1023,-268,-462
1314,-863,-129,951,-293,-422
1293,-832,-154,822,-164,-448
1304,-846,-225,736,-30,-507
1347,-834,-259,717,57,-535
1403,-768,-159,692,30,-478
1385,-772,-117,621,80,-341
1276,-716,88,663,115,-350
1289,-580,259,542,45,-383
1278,-596,286,336,-32,-283
1243,-681,253,157,-129,-177
1296,-742,202,2,-244,-113
1346,-788,188,-102,-342,-67
1393,-790,160,-207,-357,-62
1543,-830,121,-310,-260,-113
1844,-906,84,-412,-61,-207
2127,-995,28,-482,116,-253
2301,-1076,1,-500,247,-200
2447,-1113,64,-498,298,-69
2470,-1125,156,-557,256,157
2297,-1157,219,-655,182,427
2137,-1199,214,-792,118,629
2094,-1204,162,-934,76,737
2072,-1234,50,-1080,36,818
2080,-1308,-124,-1214,129,873
2050,-1447,-388,-1314,369,888
1980,-1636,-716,-1329,653,850
