ax,ay,az,gx,gy,gz
41,-2787,-986,-62,-21,606
-290,-2952,-1290,-263,103,442
-354,-3205,-1843,-324,217,313
-140,-3437,-2281,-162,200,311
157,-3563,-2483,163,215,270
532,-3491,-2236,600,234,185
702,-3387,-1819,975,211,220
719,-3314,-1452,1138,62,396
525,-3263,-1090,1171,-59,621
206,-3170,-737,1172,-13,651
-36,-3010,-440,1122,303,374
-265,-2986,-479,1016,677,-37
-231,-3073,-1012,883,937,-405
65,-3203,-1415,898,925,-441
278,-3211,-1481,1160,759,-218
439,-2958,-1097,1511,503,-19
459,-2647,-566,1732,408,-6
430,-2443,-182,1735,552,-113
325,-2437,110,1630,759,-242
262,-2532,389,1474,776,-331
192,-2659,649,1308,638,-277
63,-2697,1026,1135,447,-172
-5,-2584,1268,858,355,-212
14,-2430,1338,517,244,-341
9,-2357,1027,172,234,-471
88,-2448,207,-52,417,-589
231,-2591,-443,112,453,-600
449,-2621,-588,633,280,-487
571,-2523,-189,1325,159,-305
443,-2244,514,1937,32,-190
356,-1879,1221,2172,-59,-286
395,-1650,1636,1990,195,-564
450,-1528,1837,1612,467,-788
494,-1491,1931,1232,595,-928
576,-1374,2063,1169,637,-909
612,-1272,2137,903,657,-910
535,-1234,2045,515,543,-830
424,-1250,1874,179,401,-695
300,-1313,1550,-108,134,-532
228,-1443,1089,-296,-201,-360
358,-1571,702,-327,-463,-240
628,-1609,589,-182,-674,-121
754,-1562,747,42,-784,9
646,-1473,1032,160,-746,18
502,-1399,1259,87,-495,-139
482,-1287,1324,-113,-251,-332
551,-1170,1373,-341,-248,-382
505,-1141,1312,-606,-228,-301
356,-1161,1037,-892,-243,-260
242,-1203,556,-1105,-220,-288
271,-1266,32,-1176,-128,-300
380,-1359,-374,-1073,-77,-279
522,-1381,-576,-833,-235,-187
610,-1214,-477,-533,-553,-37
609,-939,-131,-317,-794,88
520,-687,217,-316,-817,121
277,-550,408,-523,-639,59
27,-516,241,-830,-334,-113
41,-579,-235,-1110,-164,-325
290,-721,-824,-1243,-240,-327
493,-940,-1378,-1184,-420,-82
715,-1014,-1715,-935,-670,208
744,-959,-1585,-585,-930,497
500,-792,-1134,-313,-897,625
256,-578,-740,-332,-578,441
199,-569,-636,-638,-11,61
281,-859,-955,-993,567,-304
438,-1177,-1393,-1140,605,-379
563,-1398,-1801,-1069,221,-109
571,-1546,-2024,-877,-240,362
407,-1616,-1936,-607,-564,824
81,-1622,-1682,-324,-605,1041
-176,-1578,-1398,-180,-458,920
-64,-1528,-1070,-259,-237,600
268,-1552,-793,-602,-3,278
404,-1848,-735,-964,83,136
435,-2076,-903,-1080,-132,197
465,-2140,-1074,-959,-493,379
379,-2198,-1352,-745,-715,530
339,-2283,-1713,-574,-713,574
474,-2398,-1854,-365,-550,505
478,-2477,-1649,-121,-362,342
471,-2529,-1344,41,-82,131
719,-2593,-995,41,-41,104
651,-2789,-753,-17,-247,319
347,-2907,-730,-81,-420,548
244,-2878,-785,-126,-520,579
213,-2927,-936,-152,-511,476
261,-2991,-1195,-135,-420,351
505,-3051,-1375,-81,-253,238
657,-3126,-1346,20,-54,199
724,-3151,-1283,149,141,156
791,-3086,-1038,300,176,97
725,-2999,-751,384,219,86
617,-2922,-444,374,184,82
513,-2853,-292,285,166,56
407,-2940,-345,170,186,49
383,-3002,-485,156,149,54
440,-3014,-712,222,140,59
506,-3094,-829,372,158,63
489,-3056,-678,576,270,-2
411,-2939,-471,694,424,-144
375,-2882,-329,712,496,-246
256,-2820,-209,709,505,-254
251,-2671,-11,718,380,-221
314,-2518,395,673,247,-182
331,-2355,720,487,272,-209
272,-2345,678,148,340,-316
319,-2579,-101,-271,582,-452
641,-2945,-1030,-384,772,-463
872,-3156,-1319,-6,613,-240
835,-3125,-1055,625,458,55
563,-2826,-423,1258,376,148
352,-2420,272,1586,301,13
199,-2210,775,1568,512,-159
141,-2079,1080,1329,664,-294
245,-1955,1336,998,543,-354
511,-1838,1586,587,419,-376
600,-1853,1622,146,403,-383
403,-1981,1111,-228,517,-473
369,-2261,57,-432,673,-581
590,-2585,-827,-191,646,-568
888,-2696,-1219,428,544,-452
857,-2621,-938,1304,454,-189
559,-2214,53,2090,126,62
437,-1710,1029,2327,-51,52
300,-1519,1603,2037,238,-86
177,-1498,1737,1492,443,-278
279,-1535,1586,960,541,-502
576,-1573,1491,595,539,-632
696,-1594,1433,322,355,-564
429,-1773,916,86,247,-443
263,-2034,87,15,241,-389
523,-2165,-366,237,75,-327
767,-2085,-319,645,-203,-147
734,-1848,165,1008,-410,36
471,-1584,740,1126,-379,36
381,-1350,1136,942,-128,-151
471,-1248,1388,599,208,-350
580,-1209,1454,190,371,-425
672,-1208,1375,-231,242,-355
561,-1285,1065,-572,6,-194
289,-1482,395,-772,-91,-89
374,-1604,-232,-769,-72,-107
657,-1650,-476,-513,-197,-92
738,-1587,-409,-154,-285,21
592,-1362,-47,134,-293,84
447,-1079,404,251,-275,5
459,-858,816,160,-207,-131
405,-806,1059,-130,6,-225
300,-799,980,-547,102,-270
285,-840,619,-916,-241,-181
207,-1004,-13,-1138,-724,95
207,-1168,-638,-1168,-1109,424
500,-1126,-915,-1015,-1320,632
630,-1024,-800,-761,-1323,691
322,-959,-509,-576,-1034,568
154,-778,-188,-542,-569,141
229,-629,-5,-712,109,-427
437,-627,-99,-1043,653,-747
661,-739,-359,-1331,528,-673
720,-863,-695,-1509,83,-302
665,-1040,-1144,-1571,-323,143
642,-1204,-1558,-1491,-551,452
715,-1223,-1621,-1262,-615,584
505,-1356,-1428,-981,-414,564
317,-1377,-1202,-822,-55,298
417,-1358,-918,-760,221,-50
612,-1389,-713,-804,261,-205
624,-1519,-687,-960,114,-86
478,-1663,-845,-1135,-111,181
358,-1786,-1103,-1239,-356,433
245,-1996,-1416,-1269,-523,614
285,-2122,-1580,-1249,-633,711
377,-2184,-1616,-1168,-575,698
291,-2378,-1732,-1032,-308,566
278,-2492,-1808,-844,-93,316
512,-2447,-1646,-594,-58,85
745,-2453,-1352,-440,-173,106
770,-2503,-1169,-416,-389,421
549,-2516,-1042,-496,-598,792
243,-2596,-1109,-586,-703,943
207,-2662,-1245,-539,-705,880
383,-2690,-1286,-439,-605,696
436,-2804,-1395,-375,-379,510
472,-2933,-1487,-285,-164,351
405,-3036,-1398,-87,-52,248
292,-2940,-1051,145,-31,199
240,-2758,-692,227,-43,145
193,-2703,-482,145,-102,86
225,-2651,-572,-9,-168,15
396,-2758,-895,-141,-227,-3
578,-2953,-1145,-181,-116,2
656,-3044,-1199,-54,62,-53
628,-3094,-1130,155,135,-108
572,-3053,-824,385,45,-155
657,-2873,-403,541,-50,-212
683,-2774,-92,519,18,-258
669,-2836,-94,329,125,-263
791,-2951,-241,151,125,-243
776,-3127,-347,74,80,-124
589,-3319,-600,29,93,27
351,-3463,-879,148,86,102
198,-3478,-969,470,145,33
279,-3342,-804,850,327,-173
423,-3131,-385,1211,454,-382
487,-2932,36,1404,488,-463
631,-2773,235,1361,447,-423
657,-2685,423,1249,359,-305
570,-2542,616,1108,444,-291
579,-2357,766,948,627,-427
517,-2239,842,823,692,-577
405,-2207,345,658,879,-717
589,-2377,-526,558,1113,-763
805,-2637,-1024,857,1098,-627
865,-2593,-774,1498,770,-403
757,-2296,-136,2101,539,-234
536,-1918,611,2350,691,-276
417,-1754,916,2113,1154,-510
433,-1791,946,1818,1352,-679
504,-1795,993,1678,1343,-766
620,-1653,1162,1599,1214,-751
670,-1471,1338,1432,908,-575
544,-1464,1294,1155,575,-361
378,-1590,881,904,375,-265
491,-1740,391,857,289,-259
704,-1853,179,1048,209,-233
792,-1857,247,1329,185,-148
737,-1693,545,1599,67,-50
610,-1447,1030,1726,-90,40
499,-1200,1426,1555,86,54
378,-1119,1577,1206,293,-3
276,-1132,1637,832,331,-106
349,-1101,1556,438,254,-193
532,-1073,1462,98,102,-168
620,-1033,1424,-183,-122,2
579,-1007,1331,-454,-320,134
522,-1007,1112,-679,-405,129
530,-1058,784,-809,-410,40
557,-1197,359,-834,-364,-27
636,-1254,152,-739,-422,14
646,-1246,213,-592,-590,161
538,-1134,382,-523,-834,362
406,-963,561,-599,-1058,522
215,-835,672,-820,-1063,547
69,-790,592,-1163,-860,409
62,-800,241,-1494,-544,171
146,-923,-254,-1690,-221,-84
355,-1010,-616,-1704,-18,-263
584,-991,-690,-1538,12,-307
649,-906,-558,-1315,-44,-249
570,-758,-361,-1169,-80,-178
489,-628,-268,-1196,-204,-103
373,-713,-477,-1370,-335,6
369,-812,-792,-1541,-446,113
401,-831,-1095,-1631,-556,188
424,-887,-1327,-1692,-467,177
767,-957,-1458,-1751,24,-10
958,-1227,-1661,-1760,600,-185
998,-1472,-1864,-1643,820,-152
1102,-1579,-1884,-1347,648,93
974,-1605,-1618,-1038,122,619
596,-1522,-1245,-909,-486,1186
185,-1540,-1089,-1014,-759,1452
-199,-1752,-1215,-1160,-706,1397
-465,-1940,-1409,-1137,-558,1117
-382,-2016,-1489,-983,-328,721
-112,-2115,-1456,-850,-42,364
30,-2247,-1513,-763,169,183
180,-2299,-1562,-619,106,160
374,-2266,-1377,-434,-191,253
327,-2194,-1125,-343,-443,402
159,-2204,-1027,-437,-522,462
110,-2301,-997,-552,-568,396
277,-2406,-912,-588,-633,274
584,-2563,-843,-605,-628,168
745,-2754,-1025,-600,-467,106
820,-2873,-1160,-478,-446,107
853,-2833,-1010,-235,-593,179
844,-2684,-699,-75,-680,243
700,-2582,-513,-133,-572,240
359,-2637,-585,-325,-340,129
171,-2836,-919,-535,-215,-27
199,-3085,-1163,-570,-415,-114
257,-3226,-1186,-430,-701,-167
681,-3012,-1023,-257,-706,-320
1383,-2846,-843,-165,-214,-559
1627,-3066,-964,-163,471,-599
1228,-3287,-1137,24,601,-329
646,-3265,-1043,450,42,79
595,-2970,-697,680,-537,384
653,-2906,-592,572,-679,559
407,-3039,-762,458,-551,567
143,-3091,-884,517,-245,317
80,-3117,-936,634,184,-52
195,-3180,-885,764,485,-299
367,-3324,-771,883,608,-354
478,-3416,-689,1000,614,-294
496,-3342,-586,1193,448,-216
560,-3091,-380,1410,296,-196
668,-2786,-157,1556,328,-283
719,-2537,-50,1614,471,-425
688,-2425,11,1637,591,-517
656,-2369,103,1660,609,-504
709,-2265,292,1694,469,-417
739,-2212,536,1700,293,-294
650,-2154,677,1656,188,-210
628,-2003,788,1588,152,-225
582,-1885,870,1501,184,-303
511,-1813,865,1365,266,-401
584,-1701,866,1215,369,-515
692,-1661,941,1084,565,-598
673,-1735,945,941,946,-628
586,-1779,923,886,1062,-607
611,-1704,1028,936,861,-560
654,-1622,1159,935,654,-474
713,-1545,1171,840,436,-367
703,-1451,1209,734,269,-271
556,-1432,1145,600,229,-254
477,-1437,964,460,184,-293
541,-1434,843,367,99,-302
563,-1441,780,287,46,-263
458,-1454,674,207,75,-218
383,-1442,600,181,9,-186
386,-1375,664,180,-92,-166
365,-1267,744,112,-108,-137
399,-1105,825,14,-141,-149
436,-960,955,-114,-77,-243
388,-889,977,-338,187,-366
334,-895,800,-588,442,-480
384,-950,541,-755,376,-494
442,-982,289,-838,20,-310
456,-975,6,-859,-427,3
500,-921,-77,-840,-976,369
452,-895,-9,-856,-1291,631
388,-863,17,-946,-1116,604
268,-864,-13,-1031,-708,312
208,-852,-74,-1107,-230,-114
328,-824,-155,-1201,212,-494
543,-815,-194,-1279,343,-602
592,-848,-165,-1348,182,-400
497,-853,-167,-1435,-177,-87
349,-895,-365,-1519,-663,230
307,-934,-619,-1541,-1099,508
350,-931,-757,-1526,-1322,656
356,-1002,-1036,-1532,-1033,562
455,-1090,-1283,-1528,-521,307
440,-1219,-1419,-1456,-26,22
264,-1268,-1411,-1316,497,-239
271,-1189,-1193,-1191,845,-423
376,-1182,-976,-1210,876,-441
308,-1382,-1028,-1312,673,-261
253,-1547,-1257,-1353,86,107
495,-1591,-1508,-1362,-724,580
966,-1619,-1690,-1424,-1277,1022
1060,-1861,-2015,-1503,-1301,1304
649,-2239,-2463,-1455,-701,1198
381,-2553,-2909,-1138,178,663
648,-2616,-2967,-553,526,194
944,-2409,-2525,30,206,302
698,-2213,-1858,335,-419,875
232,-2137,-1293,273,-827,1309
107,-2198,-939,38,-756,1291
102,-2276,-782,-181,-504,966
179,-2310,-881,-367,-186,491
455,-2472,-1315,-518,183,88
800,-2653,-1709,-492,285,-2
960,-2746,-1760,-281,149,191
789,-2788,-1444,-19,-12,428
349,-2855,-1070,151,-143,531
51,-2795,-703,204,-220,454
-44,-2795,-475,131,-153,226
46,-2889,-450,-60,-97,14
88,-3082,-702,-196,-102,-81
208,-3231,-1126,-223,-155,-133
357,-3350,-1375,-80,-210,-192
339,-3433,-1543,189,-137,-259
508,-3364,-1450,487,-119,-349
678,-3200,-1050,773,-225,-373
695,-3056,-661,879,-288,-327
644,-3041,-526,783,-167,-304
543,-3164,-514,673,-93,-284
540,-3314,-339,648,-128,-248
637,-3400,-157,631,-76,-271
629,-3432,-75,664,-96,-327
595,-3287,23,756,-178,-475
672,-3081,-80,820,-79,-728
853,-2919,-375,866,165,-957
1024,-2854,-631,970,387,-991
1006,-2817,-673,1166,416,-826
929,-2661,-462,1411,264,-601
816,-2502,-201,1590,140,-431
707,-2362,-12,1657,140,-359
605,-2233,206,1689,205,-351
516,-2112,475,1697,322,-435
520,-1942,693,1607,414,-562
592,-1818,881,1421,519,-625
649,-1741,1027,1161,587,-602
661,-1712,1030,867,638,-547
682,-1731,874,623,667,-514
701,-1796,530,503,680,-522
747,-1921,135,559,809,-556
913,-2030,-123,812,909,-562
1050,-1925,-32,1214,775,-453
950,-1679,406,1576,566,-262
787,-1443,924,1679,496,-163
802,-1282,1327,1515,548,-156
856,-1236,1526,1175,668,-118
831,-1286,1560,760,722,-58
732,-1342,1483,370,618,1
619,-1358,1305,45,408,59
510,-1392,960,-200,249,72
428,-1502,395,-368,219,33
424,-1712,-125,-382,224,6
481,-1850,-357,-199,184,27
477,-1848,-350,95,106,77
403,-1697,-84,380,-90,130
313,-1438,339,527,-301,152
284,-1199,719,407,-314,101
266,-1066,909,100,-85,-21
336,-976,929,-260,132,-197
483,-946,776,-586,223,-365
522,-1044,350,-804,262,-423
585,-1142,-140,-875,275,-385
704,-1190,-421,-779,89,-226
735,-1154,-524,-603,-292,71
698,-1007,-343,-475,-651,369
480,-916,-131,-491,-741,509
278,-847,-27,-636,-706,453
192,-821,6,-828,-595,265
170,-828,-71,-1050,-412,53
272,-900,-305,-1252,-260,-121
447,-1033,-599,-1323,-238,-183
602,-1086,-764,-1248,-346,-127
690,-1098,-792,-1132,-477,8
731,-1113,-731,-1058,-601,181
682,-1134,-633,-1006,-781,391
602,-1087,-507,-992,-975,596
571,-1051,-339,-1047,-1141,698
548,-1086,-252,-1186,-1098,657
488,-1126,-306,-1389,-773,514
395,-1258,-539,-1582,-390,315
333,-1484,-917,-1668,-147,134
395,-1707,-1280,-1636,-25,25
621,-1806,-1476,-1470,-80,8
875,-1773,-1447,-1223,-216,135
821,-1766,-1278,-982,-280,363
490,-1709,-1149,-841,-280,477
288,-1683,-1186,-835,-189,372
317,-1835,-1290,-890,-87,253
236,-2058,-1393,-914,-112,255
132,-2231,-1502,-910,-78,194
172,-2387,-1644,-873,33,29
352,-2492,-1782,-776,82,-95
457,-2533,-1893,-637,14,-62
508,-2506,-1929,-456,-109,67
561,-2447,-1907,-279,-151,158
595,-2433,-1785,-127,-149,203
665,-2446,-1535,-6,-144,221
624,-2550,-1275,47,-173,272
476,-2626,-1139,47,-250,344
428,-2584,-972,59,-346,331
328,-2544,-867,57,-369,249
174,-2593,-1004,32,-348,127
-7,-2773,-1375,86,-376,-32
-95,-2939,-1708,337,-532,-209
138,-2806,-1587,703,-742,-374
849,-2514,-1234,873,-718,-451
1376,-2429,-983,785,-472,-260
952,-2621,-990,628,-222,141
181,-2721,-1097,573,-133,333
68,-2593,-881,674,-220,166
367,-2388,-443,782,-221,-117
373,-2328,-228,713,-25,-341
327,-2390,-413,515,199,-545
628,-2483,-620,416,193,-695
1093,-2604,-793,419,167,-701
1368,-2742,-888,492,233,-541
1409,-2725,-743,676,255,-349
1386,-2590,-319,871,225,-198
1215,-2535,94,973,230,-102
1060,-2478,259,910,314,-114
1044,-2537,245,739,401,-190
1116,-2599,264,619,347,-162
1160,-2669,317,510,224,-36
1120,-2780,313,393,179,64
1010,-2858,217,372,215,62
929,-2778,170,490,286,-69
867,-2710,41,644,480,-282
857,-2671,-103,825,653,-442
910,-2570,-124,1068,715,-489
933,-2434,-47,1305,725,-429
936,-2328,56,1444,713,-319
841,-2279,230,1558,665,-202
688,-2191,448,1639,663,-175
624,-2058,649,1671,690,-263
657,-1911,848,1665,741,-384
702,-1795,1028,1593,850,-481
736,-1687,1169,1469,1022,-555
700,-1630,1246,1296,1107,-595
682,-1597,1241,1097,980,-522
693,-1615,1180,927,766,-369
639,-1644,1069,799,604,-250
560,-1664,896,699,466,-184
522,-1657,731,640,274,-90
485,-1633,658,611,48,41
418,-1601,657,586,-62,125
395,-1547,722,528,42,87
397,-1552,738,439,264,-30
397,-1521,775,397,295,-116
445,-1458,905,353,189,-124
500,-1388,950,220,73,-62
513,-1312,968,53,-91,43
494,-1265,963,-113,-236,118
418,-1258,816,-284,-356,127
371,-1263,569,-410,-425,86
393,-1283,399,-463,-408,0
460,-1318,238,-496,-299,-65
534,-1392,128,-513,-153,-61
484,-1413,141,-459,-135,-18
377,-1295,262,-395,-356,87
339,-1142,469,-446,-603,199
323,-1060,620,-640,-646,234
305,-1026,563,-933,-600,204
322,-1062,341,-1200,-615,152
331,-1172,5,-1338,-622,97
413,-1234,-332,-1360,-526,1
601,-1249,-551,-1282,-380,-118
784,-1291,-618,-1129,-177,-208
877,-1276,-586,-954,-9,-219
880,-1185,-420,-812,-9,-121
839,-1039,-208,-772,-201,68
773,-931,-88,-873,-515,307
659,-867,-127,-1097,-768,519
471,-911,-315,-1339,-891,627
289,-1043,-695,-1506,-815,542
291,-1186,-1136,-1516,-596,295
386,-1357,-1535,-1387,-353,40
546,-1415,-1790,-1181,-96,-129
759,-1435,-1757,-944,84,-125
862,-1460,-1476,-706,75,110
880,-1404,-1117,-590,-206,477
734,-1423,-841,-619,-488,785
440,-1453,-747,-753,-542,896
208,-1492,-844,-929,-458,797
165,-1621,-1095,-1083,-369,581
195,-1764,-1368,-1128,-312,429
170,-1953,-1665,-1064,-227,371
323,-2137,-1785,-919,-159,333
549,-2234,-1689,-712,-180,331
662,-2237,-1485,-523,-201,397
598,-2224,-1257,-398,-256,491
421,-2172,-1077,-352,-334,556
272,-2119,-1032,-413,-355,562
178,-2198,-1124,-532,-321,509
186,-2348,-1267,-607,-290,396
251,-2517,-1427,-589,-207,262
238,-2744,-1625,-470,-117,135
185,-2897,-1672,-211,-232,33
153,-2911,-1589,139,-460,-59
160,-2829,-1322,477,-688,-174
319,-2659,-906,676,-821,-307
795,-2415,-423,655,-782,-428
1141,-2367,-137,383,-459,-481
1180,-2562,-294,-21,2,-496
998,-2853,-780,-330,287,-426
743,-3126,-1285,-330,227,-282
675,-3219,-1624,-71,10,-117
598,-3165,-1552,316,-251,71
401,-2982,-1239,655,-358,194
360,-2779,-871,810,-307,131
591,-2631,-483,797,-164,-100
912,-2630,-213,632,136,-339
1127,-2726,-321,403,503,-490
1287,-2808,-623,284,565,-489
1524,-2803,-707,335,451,-320
1704,-2690,-553,451,400,-18
1409,-2772,-511,547,437,282
856,-2894,-540,694,461,435
575,-2881,-366,901,381,420
530,-2809,-71,1061,289,354
422,-2845,86,1067,327,305
379,-2823,193,1023,381,227
416,-2707,334,1029,478,91
430,-2540,471,1068,534,-82
504,-2370,564,1079,551,-268
615,-2243,620,1072,562,-369
677,-2125,696,1077,554,-390
608,-2130,630,1016,543,-361
528,-2215,419,921,490,-277
612,-2288,258,937,352,-177
650,-2306,215,1057,167,-49
630,-2195,288,1185,1,37
620,-2046,509,1272,14,-36
682,-1903,688,1249,309,-242
766,-1850,794,1147,634,-443
849,-1871,847,1048,848,-562
979,-1871,912,977,940,-593
971,-1879,916,925,848,-498
854,-1882,887,876,536,-289
697,-1902,812,816,171,-68
546,-1800,771,760,-111,79
437,-1710,762,682,-190,122
334,-1685,679,543,-80,42
297,-1655,624,407,115,-115
413,-1692,585,293,353,-265
618,-1727,523,240,397,-317
630,-1693,537,285,252,-231
591,-1540,699,340,149,-138
616,-1367,898,306,229,-153
624,-1270,989,211,317,-229
632,-1147,999,97,274,-287
664,-1046,972,-55,115,-246
659,-1050,869,-266,-99,-99
688,-1029,674,-470,-343,69
588,-1086,455,-595,-484,196
424,-1111,223,-669,-544,253
318,-1090,82,-687,-501,190
242,-1078,4,-700,-298,14
302,-1010,20,-739,-35,-192
429,-975,50,-789,165,-331
560,-906,99,-860,177,-331
552,-904,126,-965,161,-249
393,-956,7,-1090,54,-118
355,-949,-157,-1160,-368,70
367,-954,-303,-1178,-858,311
291,-933,-386,-1231,-1089,501
113,-954,-494,-1313,-957,471
-23,-1008,-668,-1368,-526,195
14,-1052,-833,-1391,-23,-186
174,-1119,-954,-1347,208,-443
318,-1125,-955,-1263,69,-422
436,-1105,-962,-1239,-229,-220
547,-1145,-1038,-1279,-601,89
731,-1104,-1015,-1306,-945,414
837,-1129,-973,-1334,-1077,637
714,-1262,-1051,-1411,-948,685
486,-1463,-1257,-1448,-590,523
406,-1687,-1511,-1374,-223,218
570,-1802,-1684,-1221,-52,-21
721,-1873,-1728,-1018,-55,13
658,-1900,-1644,-816,-231,313
505,-1831,-1437,-701,-426,614
227,-1841,-1340,-696,-461,722
87,-1878,-1279,-724,-408,626
114,-1931,-1295,-738,-273,420
227,-1999,-1394,-743,-84,221
386,-2083,-1478,-716,31,87
515,-2152,-1470,-629,16,58
620,-2222,-1436,-533,-103,124
627,-2301,-1410,-427,-257,256
478,-2357,-1449,-302,-377,386
328,-2378,-1392,-183,-410,419
313,-2380,-1254,-110,-344,355
422,-2348,-1132,-88,-217,228
594,-2390,-1082,-111,-35,97
725,-2497,-1200,-156,124,31
834,-2626,-1398,-165,110,107
786,-2866,-1535,-48,-63,325
649,-2971,-1408,184,-245,515
498,-3012,-1057,404,-326,557
314,-3020,-719,517,-348,493
202,-3014,-550,511,-309,378
271,-3012,-549,420,-291,256
458,-3059,-691,286,-212,155
666,-3165,-907,207,-31,44
817,-3235,-1052,248,171,-70
772,-3354,-1279,388,303,-114
766,-3358,-1286,650,251,-66
689,-3277,-1005,888,164,22
514,-3217,-742,1011,120,26
508,-3150,-451,1036,77,-85
667,-3180,-244,1024,94,-175
769,-3243,-53,1003,217,-192
744,-3301,-6,923,385,-238
741,-3270,-65,906,391,-360
738,-3186,-236,990,431,-548
802,-3076,-606,1145,624,-726
896,-2949,-804,1399,712,-747
920,-2721,-687,1729,668,-597
807,-2493,-362,2008,613,-458
674,-2249,28,2174,581,-426
629,-2093,379,2186,645,-459
598,-1990,617,2117,781,-464
583,-1876,806,2044,765,-451
714,-1719,1066,1949,689,-453
796,-1556,1347,1751,717,-409
702,-1484,1490,1408,784,-335
617,-1494,1474,1078,709,-274
569,-1552,1182,776,703,-344
573,-1668,744,651,784,-466
646,-1768,413,736,759,-467
807,-1738,325,917,603,-306
870,-1694,472,1124,406,-95
741,-1605,718,1286,259,53
627,-1433,1062,1355,274,52
439,-1305,1334,1275,453,-48
331,-1160,1511,1065,577,-175
356,-1063,1652,779,586,-240
460,-1001,1706,396,487,-213
550,-1013,1640,-29,344,-128
646,-1084,1468,-395,164,-41
590,-1233,1186,-658,39,24
542,-1354,863,-769,-94,96
518,-1375,592,-757,-220,185
441,-1335,389,-677,-274,283
299,-1288,340,-589,-215,311
175,-1287,391,-563,26,220
158,-1320,489,-578,262,49
183,-1310,645,-579,290,-87
152,-1243,793,-641,162,-111
123,-1180,779,-836,-140,-27
116,-1164,605,-1065,-565,117
180,-1136,345,-1264,-917,233
373,-1178,1,-1402,-1046,243
539,-1312,-319,-1433,-872,117
528,-1457,-632,-1348,-398,-103
538,-1480,-701,-1120,9,-338
653,-1317,-450,-882,128,-390
578,-1159,-112,-823,85,-248
378,-1039,86,-942,-73,-97
277,-921,160,-1139,-443,20
174,-883,23,-1400,-795,119
43,-986,-482,-1635,-936,143
192,-1054,-913,-1713,-934,82
427,-1181,-1273,-1683,-847,-29
643,-1335,-1605,-1511,-502,-179
789,-1355,-1636,-1203,-165,-293
774,-1343,-1388,-865,109,-315
782,-1196,-996,-683,101,-234
757,-1112,-798,-769,-137,-47
631,-1142,-788,-972,-391,201
484,-1199,-882,-1170,-577,388
388,-1260,-984,-1294,-741,454
357,-1358,-1191,-1345,-806,419
306,-1572,-1599,-1342,-658,327
319,-1835,-1947,-1228,-453,239
394,-1966,-2042,-1005,-317,174
486,-1995,-1944,-741,-227,143
421,-2012,-1736,-488,-210,186
317,-1903,-1443,-323,-266,267
290,-1781,-1174,-295,-369,312
258,-1811,-1094,-369,-419,357
206,-1946,-1091,-436,-394,362
183,-2008,-1050,-414,-394,285
137,-2120,-1122,-329,-392,143
136,-2317,-1397,-223,-261,-60
116,-2493,-1581,-22,-212,-241
-38,-2553,-1568,289,-383,-351
74,-2389,-1281,534,-692,-471
771,-2093,-796,560,-943,-511
1328,-2045,-606,254,-824,-332
1359,-2371,-701,-175,-473,-10
1080,-2754,-837,-411,-70,286
742,-3024,-911,-444,-129,448
626,-3054,-921,-256,-431,452
586,-2998,-950,-102,-487,381
526,-2995,-1004,-72,-241,243
507,-3064,-1185,-70,83,39
655,-3147,-1342,21,222,-115
817,-3096,-1231,216,151,-124
836,-3001,-1038,311,166,-47
780,-2943,-929,284,271,11
665,-2937,-930,295,263,52
616,-2916,-789,380,135,48
740,-2895,-685,417,89,-32
861,-2987,-724,453,18,-37
875,-3060,-705,616,-115,37
866,-3025,-624,812,-179,44
916,-3004,-586,946,-123,-17
995,-2959,-426,1057,-57,-86
1017,-2983,-216,1129,83,-148
1078,-3011,-16,1168,276,-207
1102,-2928,128,1226,427,-248
1048,-2790,308,1304,481,-306
1025,-2631,423,1330,527,-409
1037,-2431,599,1302,491,-480
1011,-2263,686,1194,527,-531
969,-2192,566,1041,621,-583
986,-2177,298,943,715,-614
974,-2217,11,977,831,-620
928,-2252,-124,1149,879,-574
949,-2177,-44,1370,842,-460
927,-2092,151,1547,768,-297
838,-2008,432,1624,637,-119
670,-1911,644,1602,573,-5
537,-1822,873,1519,583,-8
478,-1717,1124,1350,679,-115
445,-1621,1197,1060,768,-262
449,-1604,1103,728,807,-380
501,-1678,809,447,832,-425
690,-1812,420,298,850,-423
823,-1960,57,360,856,-368
820,-2044,-80,623,768,-266
829,-1947,49,966,572,-142
748,-1705,420,1231,308,33
563,-1448,905,1294,131,172
327,-1291,1236,1138,174,138
248,-1231,1457,858,343,-18
285,-1181,1551,506,454,-145
339,-1135,1543,101,304,-134
315,-1141,1422,-273,53,-28
222,-1202,1101,-599,-91,56
164,-1258,663,-818,-165,77
107,-1339,265,-854,-245,53
117,-1356,4,-767,-211,-49
273,-1275,-32,-606,-74,-210
396,-1233,95,-421,26,-319
404,-1101,357,-286,71,-354
373,-931,650,-271,54,-365
373,-853,899,-400,23,-342
367,-819,923,-643,-93,-253
393,-784,779,-910,-393,-89
336,-866,360,-1150,-696,115
300,-984,-174,-1282,-911,305
315,-1063,-530,-1259,-1032,392
393,-1103,-775,-1165,-817,268
379,-1182,-925,-1014,-412,3
395,-1127,-902,-831,-143,-244
536,-1052,-770,-733,-57,-336
631,-1055,-664,-799,-152,-241
693,-1050,-697,-975,-390,-49
712,-1085,-818,-1154,-619,158
689,-1187,-1040,-1294,-710,292
835,-1257,-1271,-1347,-705,328
968,-1370,-1512,-1306,-620,329
924,-1501,-1642,-1165,-422,357
810,-1604,-1610,-961,-209,378
767,-1660,-1461,-791,-214,417
768,-1713,-1327,-744,-333,550
622,-1838,-1273,-773,-483,758
400,-1921,-1271,-789,-601,899
264,-1956,-1299,-760,-642,904
287,-1943,-1244,-696,-671,834
421,-1921,-1174,-665,-574,719
478,-2031,-1214,-681,-299,574
430,-2206,-1304,-675,-42,463
431,-2312,-1232,-587,-39,464
400,-2390,-1078,-520,-232,603
278,-2486,-987,-494,-411,746
199,-2490,-865,-444,-463,735
171,-2449,-733,-382,-424,601
143,-2388,-611,-360,-412,465
143,-2321,-596,-389,-407,352
313,-2283,-647,-472,-365,239
448,-2366,-860,-560,-222,152
585,-2457,-1135,-556,-89,77
755,-2455,-1096,-410,-86,71
766,-2504,-934,-309,-23,148
759,-2640,-857,-291,-7,253
715,-2674,-672,-194,-183,400
520,-2597,-430,-100,-358,515
291,-2529,-385,-144,-416,510
210,-2559,-558,-258,-326,414
251,-2632,-746,-301,-162,276
390,-2690,-897,-286,16,106
608,-2762,-1036,-226,207,-56
789,-2785,-1092,-74,308,-113
942,-2696,-934,123,224,-41
1057,-2601,-705,244,108,101
980,-2681,-528,271,42,269
754,-2797,-401,293,-33,403
623,-2859,-250,302,-71,434
487,-3012,-82,259,-80,411
283,-3272,-81,147,12,317
254,-3563,-345,52,218,107
372,-3738,-697,155,320,-145
488,-3747,-972,426,397,-382
663,-3551,-1107,788,563,-627
837,-3217,-1047,1167,689,-794
848,-2915,-873,1435,758,-796
749,-2691,-605,1608,700,-647
659,-2516,-295,1691,533,-429
550,-2405,-64,1681,349,-269
423,-2333,70,1603,285,-216
292,-2259,141,1503,330,-252
178,-2174,298,1442,317,-327
87,-2110,452,1342,348,-438
36,-2104,298,1176,476,-566
133,-2158,-27,1089,576,-673
270,-2291,-314,1185,542,-710
449,-2281,-368,1442,425,-675
585,-2126,-168,1752,270,-626
700,-1902,180,1974,161,-577
700,-1692,594,2064,167,-526
581,-1552,930,2019,216,-508
600,-1430,1197,1807,284,-521
637,-1370,1354,1511,351,-507
623,-1381,1407,1190,317,-478
641,-1380,1448,905,272,-484
630,-1355,1400,651,270,-523
550,-1335,1249,408,253,-539
503,-1342,1040,194,198,-510
513,-1361,798,61,155,-476
541,-1453,557,20,131,-443
639,-1484,482,99,105,-399
701,-1416,589,229,106,-325
608,-1334,795,311,-7,-220
495,-1204,1038,297,-130,-143
470,-1037,1270,156,-191,-122
541,-919,1420,-118,-141,-146
603,-897,1412,-504,-81,-150
627,-939,1226,-877,-109,-148
464,-1078,819,-1130,-157,-127
278,-1235,229,-1212,-265,-89
285,-1417,-286,-1057,-344,-85
508,-1400,-363,-750,-474,-74
633,-1309,-176,-464,-499,-53
581,-1179,36,-345,-440,-10
454,-1033,256,-408,-476,51
384,-904,438,-615,-555,102
414,-846,531,-938,-627,125
446,-872,407,-1320,-594,100
427,-1048,-80,-1607,-454,13
465,-1303,-733,-1647,-359,-67
659,-1403,-1138,-1392,-492,-23
1116,-1214,-1087,-1061,-774,159
1198,-1093,-748,-836,-794,413
678,-1126,-518,-782,-380,470
312,-1145,-526,-801,-52,214
391,-1113,-508,-820,-26,-7
485,-1113,-531,-967,-185,57
439,-1187,-733,-1191,-357,265
392,-1362,-969,-1394,-457,415
435,-1520,-1235,-1482,-516,449
502,-1643,-1514,-1411,-460,391
612,-1780,-1747,-1214,-328,317
784,-1819,-1749,-927,-210,235
750,-1791,-1516,-664,9,192
504,-1809,-1287,-562,92,193
435,-1843,-1156,-589,-32,232
418,-1903,-1064,-653,-221,370
350,-1949,-1085,-740,-306,488
375,-2008,-1166,-792,-290,471
449,-2036,-1229,-770,-281,406
516,-2038,-1279,-709,-241,374
602,-2061,-1401,-646,-194,386
627,-2143,-1521,-536,-173,454
476,-2194,-1449,-361,-230,542
358,-2147,-1155,-206,-284,570
362,-2128,-811,-174,-330,548
376,-2166,-612,-266,-396,548
465,-2188,-530,-399,-475,554
641,-2186,-592,-527,-427,567
721,-2253,-773,-659,-228,566
720,-2414,-1074,-701,-12,494
635,-2575,-1229,-577,66,435
471,-2588,-1196,-354,45,413
397,-2503,-1110,-188,-5,408
386,-2454,-1039,-110,-104,434
433,-2444,-916,-77,-89,452
383,-2440,-771,-59,2,423
237,-2439,-694,-44,-24,342
250,-2453,-685,-61,-112,267
230,-2486,-675,-81,-221,274
133,-2536,-776,-143,-212,260
-16,-2749,-1021,-154,-161,183
-20,-2814,-1050,10,-215,51
31,-2689,-783,211,-297,-98
166,-2611,-571,270,-273,-249
448,-2619,-425,218,-214,-391
741,-2628,-409,129,-148,-469
910,-2766,-622,-4,-73,-442
1037,-2974,-831,-56,-55,-362
976,-3106,-928,29,-89,-246
854,-3195,-909,163,-151,-158
779,-3259,-855,305,-95,-178
739,-3314,-738,427,59,-287
822,-3344,-592,534,199,-394
1000,-3299,-605,605,295,-462
1037,-3284,-645,694,306,-427
914,-3189,-643,847,325,-358
875,-2994,-612,981,336,-354
845,-2874,-530,1076,352,-331
671,-2790,-403,1193,429,-291
520,-2666,-327,1310,489,-329
519,-2541,-307,1405,468,-330
597,-2362,-190,1468,478,-182
531,-2286,-77,1486,560,-58
480,-2188,33,1541,581,-86
493,-2063,157,1638,573,-165
600,-1877,358,1712,509,-198
691,-1705,612,1730,410,-142
684,-1595,818,1658,299,-40
619,-1541,973,1560,296,-5
530,-1513,1128,1492,351,-56
461,-1467,1207,1370,374,-147
458,-1427,1155,1191,404,-208
471,-1454,1078,1012,420,-199
467,-1547,864,862,440,-184
574,-1582,674,785,439,-190
556,-1609,613,806,359,-184
470,-1594,637,837,246,-159
441,-1554,699,820,118,-115
446,-1526,851,739,-71,-19
434,-1563,923,569,-155,54
338,-1617,888,416,-200,30
274,-1583,861,310,-251,-53
315,-1490,851,162,-267,-141
350,-1437,776,-49,-255,-199
