ax,ay,az,gx,gy,gz
-1183,-1068,21,-1039,881,1181
-1284,-1139,-41,-1131,866,1127
-1408,-1240,-116,-1200,763,1107
-1589,-1350,-129,-1216,610,1083
-1736,-1401,-48,-1233,499,1002
-1825,-1502,-65,-1338,448,886
-1889,-1637,-217,-1465,461,763
-1996,-1827,-413,-1544,491,661
-2057,-1992,-549,-1525,379,603
-2068,-2113,-544,-1431,128,561
-1979,-2202,-491,-1366,-68,529
-1892,-2256,-475,-1344,-196,560
-1996,-2383,-474,-1337,-369,646
-2128,-2561,-483,-1319,-509,651
-2121,-2693,-497,-1307,-566,522
-2020,-2848,-560,-1323,-555,360
-1915,-3009,-680,-1285,-536,242
-1823,-3035,-686,-1149,-625,166
-1772,-3105,-595,-1045,-782,147
-1728,-3187,-598,-1008,-908,172
-1726,-3259,-606,-929,-1138,217
-1753,-3342,-574,-828,-1408,223
-1780,-3435,-647,-797,-1505,129
-1793,-3555,-775,-777,-1537,-21
-1633,-3642,-880,-701,-1573,-220
-1465,-3675,-883,-591,-1557,-414
-1410,-3704,-927,-525,-1520,-541
-1265,-3751,-983,-436,-1600,-653
-989,-3776,-1040,-317,-1749,-762
-722,-3810,-1122,-177,-1823,-799
-601,-3830,-1161,3,-1871,-776
-529,-3813,-1158,166,-1892,-774
-396,-3774,-1141,310,-1875,-826
-236,-3722,-1107,432,-1806,-916
-65,-3686,-1191,522,-1696,-1008
145,-3629,-1304,667,-1620,-1029
315,-3481,-1315,854,-1575,-968
358,-3364,-1267,1017,-1558,-865
328,-3234,-1180,1157,-1554,-763
353,-3101,-1086,1269,-1512,-709
386,-2968,-989,1348,-1415,-686
376,-2824,-904,1409,-1296,-640
361,-2671,-823,1473,-1230,-554
282,-2482,-634,1531,-1178,-441
142,-2312,-430,1509,-1110,-348
21,-2167,-298,1428,-1075,-288
-107,-2053,-285,1314,-1070,-249
-274,-1953,-309,1230,-1044,-218
-414,-1846,-316,1184,-1050,-235
-433,-1751,-346,1134,-1087,-301
-488,-1663,-349,1090,-1067,-358
-570,-1596,-333,1063,-1006,-430
-599,-1535,-240,1059,-981,-546
-596,-1459,-175,1026,-888,-675
-495,-1349,-128,970,-782,-809
-370,-1278,-21,904,-738,-876
-329,-1197,42,812,-690,-852
-356,-1105,70,702,-706,-784
-405,-1068,40,584,-775,-725
-466,-1052,46,499,-826,-708
-602,-1017,57,441,-865,-736
-687,-987,39,376,-913,-822
-661,-993,-31,308,-918,-966
-573,-975,-111,278,-869,-1108
-430,-925,-137,273,-778,-1238
-332,-878,-53,253,-750,-1306
-237,-849,75,192,-741,-1351
-73,-821,109,74,-723,-1378
65,-809,93,-60,-773,-1331
156,-825,48,-186,-820,-1263
281,-869,-54,-277,-869,-1205
290,-870,-136,-314,-943,-1119
193,-850,-206,-333,-977,-1060
192,-813,-250,-337,-1010,-1071
279,-756,-290,-349,-1006,-1123
424,-721,-302,-381,-934,-1182
570,-718,-286,-420,-887,-1197
760,-714,-270,-455,-865,-1171
885,-706,-213,-479,-883,-1085
957,-694,-132,-532,-913,-964
1010,-741,-77,-622,-926,-833
949,-803,-72,-710,-953,-697
934,-853,-71,-801,-943,-647
969,-898,-146,-900,-875,-627
885,-954,-216,-969,-797,-592
820,-1001,-255,-1035,-768,-586
951,-1008,-341,-1125,-757,-589
1034,-1039,-363,-1179,-771,-528
1032,-1128,-373,-1220,-696,-465
1051,-1216,-355,-1243,-646,-415
1129,-1243,-305,-1264,-656,-388
1235,-1337,-345,-1349,-496,-399
1269,-1450,-393,-1425,-317,-395
1366,-1549,-482,-1502,-302,-332
1382,-1622,-566,-1566,-357,-221
1441,-1715,-746,-1654,-345,-145
1478,-1847,-885,-1671,-241,-91
1535,-1950,-956,-1637,-182,-32
1607,-2041,-966,-1587,-105,14
1685,-2093,-990,-1569,35,43
1772,-2178,-1075,-1583,134,118
1751,-2350,-1205,-1558,172,241
1717,-2403,-1202,-1470,216,318
1739,-2468,-1171,-1429,271,365
1723,-2556,-1258,-1435,406,431
1750,-2606,-1360,-1405,487,493
1702,-2676,-1393,-1330,491,586
1574,-2780,-1314,-1242,547,655
1560,-2881,-1249,-1173,680,643
1480,-2947,-1258,-1120,800,661
1385,-3021,-1366,-1090,871,693
1308,-3146,-1487,-1016,943,678
1177,-3322,-1525,-887,1091,625
1116,-3425,-1524,-754,1219,537
1092,-3537,-1493,-656,1261,475
1034,-3643,-1488,-560,1303,463
934,-3721,-1475,-434,1339,460
832,-3790,-1487,-294,1396,429
744,-3802,-1541,-150,1438,394
659,-3785,-1575,13,1415,372
533,-3765,-1617,195,1399,355
444,-3680,-1668,418,1398,317
389,-3552,-1665,660,1322,297
308,-3389,-1521,907,1285,267
335,-3161,-1322,1102,1290,197
395,-2938,-1160,1220,1258,170
397,-2759,-1039,1296,1200,161
422,-2576,-971,1350,1128,129
459,-2388,-934,1406,1070,103
564,-2221,-809,1458,1132,7
560,-2123,-781,1428,1446,-123
563,-2014,-836,1406,1596,-136
681,-1909,-844,1455,1474,-63
718,-1786,-800,1499,1453,33
669,-1674,-732,1520,1491,166
638,-1539,-598,1537,1380,330
630,-1399,-440,1510,1192,514
552,-1308,-305,1439,1006,681
518,-1231,-176,1347,922,752
555,-1134,-25,1218,945,729
490,-1062,57,1028,960,724
477,-1017,68,812,969,703
510,-1009,-28,611,1010,681
534,-997,-218,483,1020,735
594,-980,-336,479,1000,806
577,-892,-308,529,1071,887
511,-857,-242,561,1196,980
552,-774,-156,583,1136,1085
510,-665,9,569,1018,1229
307,-621,121,480,1048,1294
138,-623,127,349,1139,1213
36,-638,83,201,1343,1032
114,-646,-77,69,1565,891
187,-663,-155,35,1551,922
231,-641,-135,30,1433,1055
173,-599,25,16,1302,1221
57,-609,142,-74,1119,1367
-107,-632,162,-210,983,1416
-220,-673,89,-353,1041,1335
-226,-706,19,-456,1126,1246
-211,-707,-32,-512,1120,1246
-237,-689,-7,-537,999,1355
-390,-682,91,-559,825,1487
-667,-736,159,-631,740,1508
-894,-805,111,-751,846,1353
-1012,-868,-42,-857,1014,1134
-1074,-922,-169,-900,1070,968
-1137,-966,-191,-908,1024,872
-1269,-1038,-159,-921,901,831
-1437,-1117,-74,-933,731,783
-1562,-1162,1,-985,630,680
-1686,-1219,-5,-1090,590,540
-1658,-1250,-14,-1193,500,393
-1541,-1303,38,-1296,424,293
-1580,-1446,-55,-1442,431,276
-1704,-1649,-364,-1551,383,298
-1793,-1833,-586,-1500,260,291
-1857,-1968,-602,-1391,101,260
-1909,-2068,-463,-1333,-96,217
-1949,-2178,-359,-1332,-215,143
-1965,-2259,-299,-1367,-267,57
-1896,-2377,-311,-1439,-364,-42
-1675,-2520,-431,-1520,-458,-128
-1390,-2703,-641,-1573,-506,-150
-1312,-2936,-838,-1536,-590,-56
-1303,-3110,-935,-1373,-772,69
-1243,-3201,-915,-1146,-974,151
-1284,-3293,-869,-973,-1019,195
-1384,-3379,-849,-861,-1014,189
-1373,-3466,-914,-761,-1084,161
-1333,-3482,-809,-617,-1170,130
-1333,-3533,-700,-560,-1166,65
-1327,-3643,-762,-560,-1147,-40
-1165,-3737,-876,-519,-1221,-186
-924,-3846,-1049,-455,-1285,-323
-708,-3931,-1133,-328,-1305,-424
-488,-3988,-1110,-164,-1315,-507
-345,-4020,-1167,-4,-1271,-547
-202,-4040,-1244,188,-1308,-558
-106,-4019,-1242,417,-1373,-527
-67,-3970,-1142,614,-1327,-494
30,-3918,-1140,742,-1263,-497
97,-3858,-1209,870,-1194,-472
86,-3757,-1256,1027,-1152,-414
6,-3605,-1251,1199,-1117,-370
-148,-3421,-1200,1356,-1063,-364
-217,-3206,-1144,1483,-1055,-379
-238,-2965,-1029,1595,-1062,-385
-312,-2771,-862,1653,-1020,-377
-427,-2605,-731,1667,-996,-369
-503,-2426,-688,1670,-1073,-358
-560,-2260,-637,1684,-1181,-371
-579,-2110,-555,1674,-1194,-431
-620,-1953,-489,1631,-1143,-480
-694,-1845,-475,1558,-1071,-525
-631,-1732,-437,1493,-1079,-586
-508,-1616,-399,1441,-1160,-596
-458,-1520,-377,1379,-1141,-587
-486,-1448,-357,1319,-1056,-586
-547,-1384,-342,1267,-1100,-575
-573,-1253,-247,1230,-1131,-627
-521,-1157,-129,1142,-1029,-720
-418,-1075,-121,1019,-980,-750
-383,-985,-149,931,-1129,-669
-374,-908,-77,873,-1312,-582
-330,-860,54,772,-1435,-575
-317,-825,103,618,-1432,-599
-367,-800,118,478,-1400,-642
-490,-804,131,350,-1369,-737
-518,-782,94,227,-1249,-912
-443,-761,71,126,-1207,-1059
-324,-748,-10,35,-1183,-1161
-238,-746,-68,-19,-1169,-1206
-143,-753,-75,-69,-1187,-1241
87,-763,-115,-157,-1150,-1303
278,-795,-252,-247,-1094,-1291
412,-792,-286,-263,-1201,-1187
450,-768,-233,-273,-1293,-1094
491,-725,-201,-348,-1292,-1021
526,-704,-152,-435,-1301,-968
525,-681,-174,-539,-1310,-898
520,-714,-265,-630,-1349,-832
598,-719,-292,-686,-1354,-821
605,-761,-295,-732,-1318,-814
677,-800,-301,-778,-1286,-814
794,-797,-300,-826,-1263,-781
829,-830,-306,-892,-1295,-680
820,-913,-288,-957,-1304,-601
815,-993,-302,-1030,-1256,-594
884,-1051,-357,-1098,-1119,-650
1056,-1118,-419,-1162,-901,-718
1257,-1168,-480,-1220,-805,-691
1396,-1251,-568,-1281,-807,-548
1456,-1330,-567,-1315,-775,-396
1438,-1427,-600,-1357,-684,-287
1442,-1506,-703,-1401,-599,-218
1473,-1584,-795,-1417,-481,-190
1537,-1711,-934,-1424,-308,-147
1646,-1782,-955,-1374,-252,-73
1722,-1865,-968,-1370,-203,22
1737,-2014,-1050,-1378,-68,140
1696,-2121,-1075,-1318,1,263
1665,-2216,-1084,-1276,44,376
1664,-2272,-970,-1230,172,464
1649,-2315,-960,-1264,300,552
1557,-2414,-1220,-1354,402,653
1417,-2497,-1354,-1302,514,697
1311,-2571,-1326,-1209,627,701
1288,-2673,-1320,-1148,706,685
1281,-2762,-1238,-1063,810,660
1221,-2809,-1145,-998,870,682
1158,-2886,-1185,-988,871,705
1088,-2992,-1196,-947,919,680
1038,-3056,-1192,-891,1012,609
1057,-3184,-1315,-873,1131,522
1046,-3319,-1364,-782,1237,468
1040,-3408,-1375,-666,1302,424
1045,-3584,-1462,-563,1369,407
968,-3696,-1512,-389,1411,406
869,-3760,-1479,-194,1436,370
775,-3821,-1406,-22,1455,325
652,-3827,-1345,132,1468,267
538,-3789,-1352,255,1565,161
467,-3717,-1348,381,1620,63
447,-3588,-1334,509,1580,30
404,-3446,-1330,632,1516,47
334,-3282,-1268,763,1479,56
335,-3099,-1200,877,1443,39
332,-2895,-1109,980,1393,42
322,-2713,-1003,1068,1352,41
329,-2560,-924,1146,1368,9
331,-2382,-833,1220,1468,-30
326,-2240,-766,1254,1524,-30
347,-2135,-782,1263,1535,-6
349,-2008,-726,1309,1532,10
336,-1886,-569,1334,1543,18
342,-1765,-426,1301,1499,39
401,-1661,-346,1207,1436,59
568,-1580,-312,1085,1418,90
671,-1518,-294,969,1347,200
722,-1457,-358,871,1216,374
652,-1413,-465,842,1051,546
475,-1335,-433,858,1082,603
381,-1265,-310,849,1196,557
422,-1206,-227,775,1234,513
486,-1146,-215,675,1217,539
466,-1088,-180,600,1118,643
540,-1015,-159,537,950,763
645,-944,-144,478,919,852
427,-916,-177,416,1141,904
190,-922,-245,357,1300,883
228,-893,-310,350,1319,803
277,-824,-282,352,1445,744
261,-782,-191,325,1557,776
286,-712,-65,289,1416,903
213,-647,67,205,1185,1071
-7,-670,127,63,1195,1104
8,-681,95,-79,1310,995
157,-683,65,-183,1340,947
209,-685,23,-268,1334,1019
207,-705,-24,-340,1216,1163
139,-710,-100,-392,1064,1319
-100,-723,-79,-419,1037,1406
-304,-750,-11,-474,1142,1355
-338,-758,-2,-556,1216,1256
-374,-775,-45,-629,1180,1245
-500,-801,-74,-682,1079,1315
-712,-821,-61,-713,960,1347
-960,-860,-28,-772,1023,1246
-1171,-917,-61,-876,1159,1069
-1256,-964,-142,-957,1103,920
-1317,-1019,-132,-1018,989,815
-1416,-1090,-129,-1104,953,702
-1458,-1167,-218,-1187,853,605
-1398,-1211,-230,-1223,724,528
-1412,-1247,-203,-1292,661,474
-1562,-1339,-285,-1385,601,468
-1660,-1435,-340,-1426,497,410
-1717,-1577,-411,-1465,375,341
-1790,-1728,-451,-1474,279,256
-1801,-1848,-458,-1470,130,149
-1653,-1940,-525,-1491,-22,57
-1471,-2010,-581,-1523,-100,11
-1468,-2140,-668,-1571,-185,68
-1557,-2279,-742,-1567,-373,175
-1621,-2399,-741,-1516,-557,235
-1670,-2563,-805,-1474,-655,251
-1702,-2693,-862,-1392,-710,217
-1750,-2826,-881,-1301,-725,159
-1761,-2964,-908,-1231,-792,107
-1621,-3036,-931,-1141,-919,35
-1544,-3119,-1003,-1058,-989,30
-1593,-3195,-985,-943,-1094,61
-1589,-3223,-873,-838,-1292,34
-1602,-3302,-895,-810,-1376,-54
-1495,-3392,-1038,-763,-1377,-211
-1366,-3366,-1055,-637,-1373,-377
-1360,-3382,-1041,-531,-1403,-437
-1289,-3367,-983,-416,-1619,-465
-1242,-3402,-906,-350,-1759,-532
-1150,-3502,-1004,-364,-1763,-681
-898,-3592,-1187,-333,-1780,-866
-598,-3698,-1393,-249,-1803,-989
-360,-3825,-1568,-87,-1810,-1051
-148,-3864,-1597,128,-1720,-1131
173,-3896,-1668,305,-1636,-1184
447,-3895,-1768,529,-1645,-1121
557,-3785,-1649,805,-1633,-1010
584,-3685,-1474,983,-1545,-943
634,-3561,-1413,1099,-1494,-867
597,-3420,-1296,1226,-1463,-771
473,-3273,-1201,1305,-1361,-693
324,-3118,-1199,1360,-1274,-621
225,-2960,-1222,1446,-1263,-554
128,-2761,-1165,1542,-1294,-471
40,-2597,-1124,1600,-1290,-422
-178,-2458,-1090,1662,-1248,-408
-336,-2275,-969,1740,-1205,-472
-329,-2108,-822,1769,-1141,-612
-322,-1961,-710,1732,-953,-723
-355,-1823,-615,1680,-870,-731
-405,-1701,-474,1637,-916,-711
-426,-1546,-367,1564,-976,-697
-413,-1412,-249,1459,-1014,-690
-428,-1318,-120,1319,-1036,-680
-407,-1277,-169,1150,-1086,-668
-404,-1202,-266,1046,-1058,-672
-464,-1134,-311,990,-986,-718
-457,-1060,-295,960,-1002,-792
-450,-999,-215,934,-963,-872
-460,-940,-186,870,-924,-924
-395,-827,-126,809,-974,-954
-358,-766,-14,718,-1008,-948
-333,-755,57,588,-1020,-954
-227,-701,42,439,-1038,-996
-178,-688,12,277,-1010,-1014
-190,-714,-51,144,-969,-1034
-137,-720,-139,58,-924,-1095
-1,-737,-185,-10,-865,-1165
213,-763,-253,-73,-812,-1206
331,-745,-320,-92,-792,-1166
340,-705,-293,-82,-847,-1062
386,-644,-162,-96,-927,-994
492,-599,-82,-203,-910,-969
578,-635,-160,-334,-821,-956
641,-645,-188,-406,-751,-898
698,-624,-120,-445,-745,-807
686,-652,-123,-537,-734,-722
705,-750,-213,-609,-742,-669
786,-758,-139,-608,-758,-644
827,-774,-53,-673,-649,-631
909,-810,-94,-782,-558,-609
997,-819,-148,-872,-561,-536
958,-863,-216,-970,-587,-411
930,-898,-211,-1020,-564,-337
893,-926,-147,-1088,-508,-307
873,-1067,-186,-1211,-493,-288
997,-1159,-287,-1298,-488,-328
1095,-1212,-366,-1372,-368,-339
1128,-1298,-422,-1443,-258,-322
1196,-1414,-592,-1519,-203,-303
1321,-1540,-796,-1540,-102,-279
1386,-1610,-834,-1500,-55,-194
1364,-1711,-810,-1503,-83,-68
1414,-1872,-812,-1552,-35,1
1515,-2029,-880,-1611,23,64
1547,-2154,-1075,-1648,84,143
1524,-2304,-1312,-1625,270,167
1501,-2382,-1352,-1525,412,149
1533,-2488,-1370,-1462,512,136
1599,-2555,-1346,-1387,574,161
1650,-2630,-1358,-1334,572,254
1636,-2723,-1281,-1263,569,382
1571,-2742,-1202,-1216,554,476
1491,-2825,-1284,-1232,599,553
1338,-2959,-1405,-1191,730,572
1302,-3060,-1524,-1108,879,515
1304,-3174,-1590,-985,986,495
1220,-3257,-1583,-837,1027,516
1148,-3347,-1584,-704,1066,499
1050,-3438,-1523,-564,1179,434
984,-3475,-1409,-441,1299,341
967,-3553,-1377,-372,1414,256
965,-3591,-1407,-306,1414,248
878,-3635,-1454,-215,1372,294
704,-3679,-1529,-79,1397,296
527,-3687,-1611,98,1451,214
480,-3635,-1629,299,1529,79
511,-3512,-1557,510,1568,-5
528,-3362,-1422,684,1578,-29
574,-3222,-1349,811,1622,-34
599,-3037,-1269,929,1635,8
585,-2847,-1130,1022,1602,74
592,-2673,-1030,1072,1558,130
591,-2508,-961,1121,1510,180
584,-2341,-889,1181,1585,170
550,-2199,-838,1217,1758,129
534,-2053,-767,1227,1868,97
632,-1910,-698,1201,1863,92
723,-1826,-819,1131,1878,145
742,-1750,-974,1156,1840,284
721,-1614,-810,1289,1667,440
657,-1466,-607,1319,1561,567
448,-1411,-493,1277,1504,642
360,-1374,-478,1221,1580,552
502,-1307,-478,1164,1758,416
646,-1234,-410,1104,1840,429
634,-1191,-346,1034,1784,562
639,-1141,-285,969,1687,695
669,-1075,-266,906,1610,808
612,-1019,-262,853,1511,955
409,-991,-158,832,1423,1051
320,-957,-113,761,1467,1008
279,-941,-164,681,1552,956
261,-920,-210,633,1591,944
230,-857,-191,623,1617,952
201,-769,-54,597,1577,991
217,-704,13,500,1497,1042
192,-659,4,395,1444,1097
72,-641,24,311,1473,1117
17,-637,-1,212,1557,1087
69,-643,-102,133,1572,1091
48,-643,-128,111,1535,1163
-26,-630,-57,111,1537,1233
-156,-617,67,96,1534,1272
-280,-604,108,18,1546,1280
-432,-597,96,-55,1574,1292
-712,-594,139,-123,1547,1312
-913,-649,166,-262,1468,1222
-931,-738,160,-393,1522,1007
-960,-803,122,-493,1619,830
-1039,-899,52,-581,1623,718
-1117,-954,49,-650,1531,626
-1140,-1022,47,-749,1390,545
-1143,-1080,19,-865,1266,494
-1184,-1181,-26,-989,1158,473
-1212,-1316,-102,-1106,1062,464
-1236,-1394,-190,-1199,907,481
-1362,-1558,-372,-1269,777,500
-1490,-1726,-474,-1260,706,460
-1500,-1819,-471,-1229,595,410
-1457,-1884,-458,-1226,422,436
-1533,-1963,-440,-1249,170,561
-1723,-2084,-429,-1277,-49,625
-1820,-2194,-405,-1312,-147,545
-1866,-2315,-451,-1352,-185,418
-1807,-2442,-582,-1377,-244,286
-1758,-2582,-662,-1340,-333,213
-1741,-2713,-613,-1261,-460,168
-1618,-2829,-616,-1243,-535,80
-1468,-2975,-704,-1217,-648,63
-1386,-3063,-732,-1138,-882,126
-1396,-3183,-808,-1060,-1058,185
-1407,-3283,-738,-907,-1194,178
-1303,-3299,-658,-780,-1281,95
-1325,-3341,-673,-693,-1222,15
-1284,-3411,-644,-593,-1264,-65
-1165,-3490,-626,-509,-1348,-161
-1059,-3590,-641,-425,-1347,-279
-819,-3697,-690,-322,-1334,-396
-691,-3797,-713,-177,-1369,-419
-545,-3874,-670,-20,-1406,-448
-384,-3923,-601,113,-1425,-464
-215,-4016,-640,214,-1468,-463
12,-4075,-740,337,-1529,-465
173,-4073,-805,520,-1544,-424
166,-4010,-807,730,-1579,-337
112,-3905,-757,931,-1552,-305
91,-3721,-710,1093,-1421,-339
122,-3547,-674,1207,-1329,-337
148,-3369,-675,1309,-1364,-244
16,-3170,-632,1406,-1436,-126
-140,-2934,-502,1485,-1455,-111
-171,-2721,-386,1497,-1425,-164
-178,-2549,-337,1464,-1326,-208
-221,-2382,-326,1443,-1257,-218
-296,-2248,-296,1434,-1188,-242
-386,-2133,-297,1415,-1107,-299
-428,-2037,-370,1400,-1077,-393
-444,-1925,-377,1432,-992,-529
-408,-1812,-287,1461,-898,-648
-307,-1671,-185,1443,-903,-700
-226,-1539,-132,1366,-942,-668
-264,-1450,-127,1267,-1054,-547
-365,-1375,-22,1202,-1157,-475
-416,-1298,33,1095,-1122,-521
-376,-1262,-37,972,-996,-617
-360,-1234,-142,899,-931,-671
-365,-1228,-248,867,-932,-678
-396,-1162,-184,907,-975,-719
-363,-1087,-86,903,-1019,-809
-295,-1013,-20,846,-957,-906
-229,-933,-8,755,-1002,-919
-226,-892,41,646,-1120,-884
-167,-857,72,515,-1121,-908
-22,-853,48,375,-1100,-933
142,-875,8,271,-1169,-912
222,-891,4,190,-1215,-860
272,-911,4,120,-1221,-827
399,-921,-64,69,-1201,-837
463,-872,-96,46,-1118,-845
493,-849,-129,22,-1037,-832
616,-798,-85,8,-1108,-785
731,-766,-32,-44,-1144,-717
751,-763,2,-117,-1039,-649
875,-758,67,-183,-994,-572
978,-741,136,-262,-973,-462
830,-777,122,-363,-1005,-303
757,-763,177,-432,-1049,-257
773,-760,224,-538,-966,-301
780,-813,145,-672,-839,-351
817,-820,154,-746,-782,-358
840,-841,154,-856,-779,-330
902,-936,67,-987,-789,-296
1023,-1016,22,-1055,-794,-263
1076,-1100,18,-1122,-719,-235
1133,-1179,22,-1195,-614,-232
1233,-1200,9,-1278,-528,-253
1291,-1279,-118,-1389,-410,-229
1284,-1360,-171,-1442,-349,-179
1252,-1412,-166,-1484,-312,-151
1257,-1513,-200,-1557,-229,-156
1381,-1587,-226,-1623,-111,-177
1515,-1702,-337,-1724,8,-120
1542,-1903,-541,-1781,36,42
1624,-1982,-578,-1765,-31,218
1643,-2158,-613,-1791,-36,381
1525,-2356,-697,-1762,70,488
1434,-2465,-715,-1713,217,493
1416,-2621,-815,-1713,401,449
1456,-2744,-871,-1654,561,431
1457,-2824,-821,-1581,622,490
1345,-2913,-705,-1540,613,612
1238,-2996,-730,-1529,581,706
1152,-3111,-900,-1522,606,752
977,-3237,-1005,-1438,639,758
833,-3325,-1002,-1296,720,675
809,-3435,-993,-1157,856,525
853,-3543,-1048,-1013,984,425
875,-3626,-1000,-823,959,389
755,-3699,-870,-643,962,340
697,-3755,-810,-516,1119,188
729,-3835,-823,-410,1247,52
782,-3896,-881,-302,1279,9
887,-3934,-1023,-173,1264,9
893,-3878,-1092,5,1189,77
844,-3784,-1087,171,1082,162
756,-3675,-1165,302,1077,214
622,-3555,-1207,456,1074,235
483,-3411,-1137,636,1088,213
384,-3226,-964,790,1092,192
280,-3065,-878,874,977,195
126,-2920,-838,921,866,170
89,-2755,-744,972,824,52
282,-2647,-738,973,899,-118
430,-2550,-862,1004,1088,-178
523,-2398,-785,1126,1203,-124
581,-2242,-648,1194,1181,-16
435,-2148,-627,1194,1166,79
235,-2092,-651,1205,1137,106
114,-1984,-617,1247,984,91
192,-1838,-494,1269,875,56
371,-1695,-299,1239,830,53
417,-1606,-211,1113,824,142
505,-1550,-168,979,737,299
603,-1430,-51,878,623,483
437,-1335,-2,726,526,694
200,-1282,21,573,482,768
155,-1270,-23,408,672,637
184,-1295,-274,275,927,520
219,-1276,-484,302,1030,514
222,-1257,-493,418,993,583
195,-1198,-367,513,935,670
249,-1089,-226,537,826,773
310,-986,-132,508,651,926
232,-902,-79,472,532,1043
66,-844,-34,406,784,950
-112,-842,-89,283,1287,743
-174,-852,-155,201,1495,648
-46,-789,-135,186,1328,693
45,-720,-41,153,1109,855
-1,-702,15,61,983,1050
-33,-682,3,-50,889,1203
-82,-679,-77,-146,782,1343
-263,-710,-179,-188,783,1403
-421,-735,-226,-197,976,1303
-413,-744,-208,-216,1115,1194
-383,-738,-129,-239,1076,1211
-445,-719,-64,-296,959,1319
-593,-717,-27,-359,820,1435
-801,-709,63,-401,746,1463
-971,-719,121,-490,793,1391
-1108,-782,124,-607,851,1270
-1177,-844,84,-707,882,1119
-1210,-900,-1,-793,844,1001
-1271,-972,-111,-847,799,906
-1407,-1037,-137,-873,767,793
-1461,-1087,-124,-926,783,615
-1462,-1155,-97,-1008,825,440
-1475,-1252,-79,-1108,761,339
-1462,-1293,-132,-1213,626,276
-1537,-1412,-255,-1308,459,251
-1601,-1520,-368,-1374,365,181
-1598,-1669,-573,-1430,337,118
-1554,-1827,-672,-1406,187,138
-1589,-1907,-566,-1329,-105,204
-1714,-1996,-426,-1327,-184,205
-1797,-2114,-493,-1385,-122,108
-1821,-2241,-663,-1403,-135,-4
-1847,-2370,-724,-1354,-215,-88
-1725,-2443,-741,-1313,-289,-185
-1580,-2582,-769,-1287,-413,-173
-1532,-2740,-769,-1208,-674,-78
-1485,-2799,-733,-1098,-842,-50
-1528,-2837,-675,-1028,-860,-56
-1543,-2897,-686,-1013,-853,-113
-1507,-2989,-743,-1007,-829,-194
-1427,-3107,-792,-961,-894,-236
-1280,-3228,-793,-879,-1030,-252
-1156,-3367,-860,-817,-1131,-250
-1145,-3529,-1004,-731,-1089,-268
-1097,-3634,-1068,-560,-1102,-306
-1119,-3762,-1035,-396,-1203,-347
-1127,-3836,-1057,-270,-1357,-419
-979,-3863,-1045,-111,-1457,-552
-837,-3884,-1019,10,-1483,-647
-752,-3921,-1018,122,-1537,-682
-585,-3909,-1056,232,-1561,-749
-414,-3874,-1142,338,-1493,-826
-371,-3849,-1235,479,-1400,-872
-291,-3749,-1273,653,-1409,-901
-164,-3602,-1236,827,-1473,-886
-91,-3459,-1141,978,-1493,-839
-97,-3323,-1043,1086,-1460,-808
-86,-3185,-957,1158,-1430,-793
-62,-3056,-909,1209,-1395,-781
-121,-2938,-913,1257,-1355,-751
-135,-2816,-867,1318,-1327,-744
-138,-2688,-852,1353,-1216,-752
-189,-2563,-840,1389,-1190,-704
-220,-2389,-797,1431,-1227,-650
-265,-2237,-706,1464,-1231,-637
-312,-2088,-602,1460,-1215,-663
-253,-1931,-498,1433,-1200,-695
-152,-1792,-309,1378,-1143,-694
-145,-1702,-200,1255,-1088,-645
-137,-1583,-192,1124,-1075,-581
-167,-1499,-227,1022,-1121,-491
-346,-1419,-249,944,-1164,-418
-558,-1410,-335,895,-1157,-451
-625,-1331,-328,904,-1117,-584
-608,-1240,-231,879,-1019,-759
-562,-1190,-221,798,-924,-903
-445,-1143,-291,732,-954,-980
-385,-1052,-265,709,-1042,-996
-333,-982,-203,642,-1088,-1016
-277,-917,-125,554,-1076,-1052
-228,-862,21,456,-981,-1106
-202,-853,11,316,-872,-1149
-153,-859,-6,213,-930,-1161
-56,-875,-85,124,-958,-1174
11,-910,-190,86,-999,-1143
29,-882,-234,91,-1028,-1121
18,-858,-301,78,-987,-1166
134,-855,-311,69,-1006,-1226
305,-838,-255,44,-999,-1258
412,-823,-282,-23,-1011,-1219
488,-786,-285,-81,-1067,-1148
477,-755,-248,-139,-1088,-1087
446,-729,-212,-217,-1099,-1064
570,-713,-209,-301,-1087,-1089
714,-726,-264,-376,-1032,-1086
818,-736,-284,-425,-999,-1022
921,-723,-193,-449,-1038,-950
963,-702,-130,-537,-981,-889
930,-753,-163,-646,-920,-837
952,-792,-185,-725,-913,-808
989,-805,-220,-790,-903,-766
938,-831,-234,-850,-935,-677
921,-863,-263,-925,-959,-616
947,-907,-303,-1005,-878,-612
1012,-1019,-371,-1074,-821,-612
1136,-1106,-420,-1120,-786,-598
1207,-1167,-451,-1152,-717,-573
1268,-1211,-506,-1193,-626,-556
1313,-1237,-516,-1237,-561,-501
1349,-1308,-531,-1287,-521,-406
1360,-1411,-619,-1341,-477,-308
1358,-1495,-664,-1374,-401,-244
1404,-1576,-662,-1419,-310,-226
1538,-1689,-730,-1474,-225,-211
1703,-1782,-806,-1503,-106,-161
1692,-1910,-899,-1516,10,-59
1687,-2012,-989,-1526,52,11
1857,-2085,-1100,-1523,127,38
1987,-2154,-1235,-1501,262,138
1883,-2283,-1327,-1438,255,340
1752,-2345,-1296,-1348,221,456
1699,-2418,-1198,-1296,347,455
1661,-2481,-1154,-1291,475,458
1678,-2589,-1259,-1322,582,487
1572,-2661,-1251,-1275,699,530
1525,-2768,-1295,-1242,821,530
1659,-2870,-1394,-1176,956,529
1627,-2980,-1356,-1059,1016,599
1495,-3091,-1297,-985,1083,658
1331,-3246,-1297,-918,1153,660
1215,-3424,-1381,-832,1279,578
1140,-3581,-1444,-702,1423,452
1187,-3669,-1382,-545,1459,354
1213,-3713,-1355,-436,1425,345
1165,-3797,-1502,-357,1412,382
1088,-3860,-1700,-193,1433,397
981,-3817,-1724,55,1436,393
893,-3719,-1613,288,1440,364
816,-3617,-1558,472,1490,323
717,-3486,-1537,631,1526,306
648,-3320,-1442,795,1449,332
479,-3118,-1291,933,1403,345
364,-2945,-1189,1010,1452,267
373,-2778,-1151,1088,1461,175
444,-2593,-1056,1177,1438,141
568,-2382,-894,1243,1359,187
568,-2229,-786,1256,1259,275
521,-2099,-689,1258,1310,277
512,-1991,-632,1236,1467,202
545,-1925,-662,1226,1550,153
532,-1852,-698,1250,1602,153
536,-1790,-656,1277,1617,177
600,-1705,-548,1295,1603,225
640,-1610,-438,1258,1472,350
562,-1559,-380,1183,1355,478
433,-1526,-356,1111,1249,552
409,-1478,-303,1049,1145,551
500,-1410,-273,975,1047,561
686,-1314,-251,910,921,636
807,-1216,-134,848,926,726
650,-1210,-156,727,1105,810
605,-1200,-242,680,1120,880
612,-1111,-246,698,1071,943
434,-1078,-295,687,1151,973
324,-1036,-280,709,1264,919
366,-917,-102,732,1286,867
372,-845,35,673,1252,890
474,-772,93,590,1128,975
558,-667,203,501,968,1137
474,-642,239,354,883,1308
328,-620,134,210,882,1428
102,-647,58,138,872,1458
-137,-657,-12,90,1063,1290
-182,-668,-57,48,1374,1019
-136,-662,-11,28,1455,878
-17,-647,79,-19,1378,873
19,-662,153,-104,1182,985
32,-683,220,-211,968,1118
22,-697,230,-336,831,1236
-69,-738,172,-440,732,1331
-169,-745,143,-497,714,1345
-293,-770,162,-560,865,1245
-398,-835,108,-666,1149,1078
-474,-880,23,-752,1202,1015
-494,-900,4,-803,1042,1045
-558,-915,-30,-862,885,1120
-764,-970,-116,-926,750,1196
-1041,-1049,-164,-955,648,1198
-1247,-1112,-221,-975,603,1077
-1407,-1152,-228,-983,611,866
-1481,-1223,-193,-1012,677,609
-1498,-1289,-156,-1088,713,421
-1519,-1332,-157,-1199,693,304
-1518,-1387,-235,-1336,643,224
-1538,-1498,-392,-1443,511,203
-1644,-1587,-457,-1457,384,197
-1728,-1657,-431,-1456,275,137
-1716,-1756,-425,-1477,98,61
-1687,-1813,-447,-1501,-54,-10
-1689,-1982,-638,-1548,-152,-87
-1670,-2193,-903,-1490,-241,-197
-1593,-2279,-940,-1319,-315,-346
-1468,-2350,-778,-1187,-304,-488
-1273,-2404,-637,-1142,-372,-550
-1112,-2475,-627,-1166,-480,-502
-992,-2613,-731,-1208,-571,-371
-987,-2754,-793,-1190,-733,-176
-1163,-2910,-828,-1138,-906,27
-1331,-3065,-850,-1053,-1113,130
-1389,-3141,-852,-950,-1218,93
-1465,-3270,-908,-886,-1193,-10
-1424,-3460,-1037,-810,-1164,-158
-1224,-3582,-1037,-668,-1211,-298
-1083,-3693,-982,-540,-1240,-381
-885,-3785,-1013,-433,-1336,-433
-684,-3821,-1010,-304,-1469,-449
-571,-3861,-965,-174,-1538,-447
-501,-3908,-1007,-62,-1569,-460
-483,-3972,-1092,69,-1575,-491
-270,-3996,-1112,222,-1589,-574
-113,-4003,-1109,368,-1556,-617
-38,-3999,-1160,505,-1588,-601
94,-3934,-1112,692,-1661,-600
209,-3877,-1082,836,-1540,-646
302,-3817,-1138,957,-1407,-675
425,-3695,-1126,1130,-1404,-633
467,-3488,-994,1294,-1331,-560
401,-3329,-953,1374,-1241,-492
335,-3165,-951,1444,-1232,-418
235,-2974,-813,1527,-1252,-358
156,-2775,-653,1557,-1242,-333
98,-2586,-549,1523,-1227,-317
-17,-2429,-476,1462,-1228,-298
-91,-2301,-430,1399,-1115,-350
-170,-2188,-440,1344,-885,-448
-197,-2082,-427,1327,-834,-508
-162,-1973,-408,1315,-930,-491
-137,-1867,-332,1304,-1049,-442
-123,-1773,-250,1251,-1123,-406
-175,-1742,-303,1162,-1067,-402
-248,-1705,-385,1113,-978,-424
-266,-1610,-366,1092,-938,-460
-395,-1531,-326,1043,-892,-503
-439,-1453,-202,990,-923,-593
-256,-1361,-164,880,-914,-690
-245,-1339,-209,768,-830,-680
-265,-1299,-174,718,-983,-622
-242,-1228,-72,677,-1156,-587
-174,-1140,-9,574,-1104,-615
-213,-1108,-51,421,-940,-651
-244,-1081,-137,324,-971,-681
-209,-1030,-154,281,-1101,-721
-173,-997,-181,217,-1086,-767
-114,-954,-207,164,-966,-838
-234,-966,-283,97,-871,-868
-250,-965,-317,88,-958,-930
-66,-941,-320,98,-1079,-1030
69,-962,-355,76,-1026,-1105
262,-960,-326,94,-1006,-1156
481,-883,-199,111,-1068,-1125
616,-869,-125,42,-1075,-1034
688,-857,-2,-46,-1083,-944
647,-870,-48,-169,-1015,-864
616,-883,-95,-244,-1023,-800
652,-881,-183,-307,-1043,-742
628,-910,-241,-343,-1030,-682
623,-906,-201,-351,-997,-649
642,-878,-129,-392,-985,-625
627,-879,-122,-482,-958,-596
588,-905,-210,-570,-892,-594
589,-919,-249,-607,-874,-619
652,-955,-203,-635,-826,-664
767,-951,-173,-701,-732,-694
842,-995,-179,-779,-753,-642
900,-1011,-153,-826,-813,-578
959,-1030,-152,-906,-794,-536
942,-1099,-150,-994,-772,-488
989,-1173,-181,-1078,-750,-470
1134,-1247,-294,-1169,-660,-473
1162,-1329,-383,-1230,-562,-423
1130,-1368,-459,-1269,-533,-355
1196,-1459,-571,-1305,-512,-306
1277,-1535,-615,-1276,-440,-277
1326,-1554,-575,-1270,-313,-269
1390,-1613,-600,-1325,-232,-246
1455,-1668,-713,-1375,-184,-190
1516,-1733,-744,-1386,-115,-134
1500,-1835,-724,-1389,-103,-52
1520,-1889,-712,-1411,-46,-6
1594,-1985,-762,-1468,98,16
1577,-2078,-839,-1517,187,90
1613,-2175,-990,-1576,190,190
1659,-2300,-1191,-1579,168,302
1569,-2418,-1354,-1521,275,373
1478,-2560,-1490,-1435,414,386
1442,-2655,-1498,-1291,452,387
1420,-2702,-1418,-1178,551,353
1438,-2774,-1277,-1111,670,274
1518,-2828,-1158,-1089,777,228
1567,-2884,-1121,-1113,921,233
1605,-2963,-1112,-1134,1005,276
1555,-3039,-1140,-1147,1009,361
1506,-3120,-1203,-1137,1034,415
1393,-3152,-1310,-1108,1073,455
1224,-3209,-1398,-1040,1062,479
1087,-3251,-1465,-943,1007,459
975,-3291,-1492,-813,1058,378
810,-3268,-1508,-669,1098,305
696,-3332,-1523,-513,1106,191
664,-3350,-1548,-357,1242,28
703,-3366,-1561,-201,1369,-136
801,-3358,-1583,-48,1435,-236
826,-3329,-1565,116,1454,-246
907,-3237,-1527,253,1409,-206
915,-3142,-1497,358,1335,-93
782,-3021,-1454,458,1264,35
582,-2905,-1417,558,1209,97
393,-2819,-1408,671,1247,25
329,-2694,-1351,806,1332,-132
396,-2565,-1224,931,1432,-273
526,-2434,-1152,1014,1501,-326
592,-2321,-1105,1083,1406,-239
643,-2204,-999,1166,1226,-113
746,-2035,-832,1223,1049,5
841,-1903,-704,1224,950,132
799,-1803,-607,1204,926,242
794,-1700,-515,1156,986,279
899,-1587,-483,1081,993,333
921,-1521,-494,1033,943,461
801,-1453,-470,1022,986,547
676,-1381,-449,980,1156,533
655,-1348,-476,916,1327,491
710,-1283,-529,886,1442,491
804,-1190,-477,886,1389,588
923,-1075,-366,867,1252,762
943,-960,-253,807,1114,1007
909,-886,-201,736,973,1242
807,-826,-196,695,963,1379
596,-795,-149,653,1101,1397
495,-777,-201,586,1330,1310
434,-778,-252,546,1426,1262
440,-767,-270,526,1449,1247
449,-743,-230,517,1454,1279
444,-675,-134,490,1420,1347
442,-649,-27,432,1305,1448
444,-607,5,337,1167,1583
406,-607,-14,246,1052,1724
271,-591,-20,173,1013,1816
