ax,ay,az,gx,gy,gz
784,-2663,-1218,1294,228,-125
897,-2475,-1146,1559,143,6
776,-2289,-826,1749,-5,217
732,-2040,-459,1866,-84,198
757,-1876,-241,1798,-44,82
791,-1783,-68,1692,-59,-2
828,-1733,7,1524,-67,-85
922,-1738,-92,1321,-31,-165
1062,-1730,-210,1175,22,-208
1101,-1771,-433,1140,19,-142
1146,-1745,-572,1179,-51,-48
1310,-1589,-523,1231,-139,16
1298,-1473,-382,1304,-138,92
1131,-1321,-132,1365,-69,100
986,-1142,124,1325,57,-30
890,-922,357,1186,86,-156
831,-774,451,947,95,-226
798,-775,296,641,130,-269
766,-826,9,400,122,-284
697,-904,-290,286,109,-255
622,-961,-568,287,68,-203
686,-886,-594,375,-49,-106
746,-753,-440,452,-200,54
678,-636,-241,474,-345,196
691,-451,-16,428,-382,220
721,-307,155,263,-217,153
668,-299,174,25,-20,32
569,-377,75,-181,17,-52
513,-435,-30,-296,-81,-58
522,-471,-148,-370,-161,-45
566,-496,-200,-435,-136,-41
596,-498,-216,-493,-98,-9
709,-510,-201,-557,-141,87
736,-581,-120,-624,-227,238
722,-630,-28,-710,-211,286
729,-668,91,-785,-217,228
722,-674,219,-886,-231,172
681,-747,167,-1062,-228,136
690,-817,41,-1189,-317,142
753,-871,-40,-1274,-422,233
811,-913,-102,-1361,-461,327
820,-1001,-197,-1433,-423,355
857,-1144,-261,-1475,-387,355
824,-1313,-284,-1485,-337,351
601,-1544,-338,-1478,-338,356
476,-1678,-303,-1427,-526,360
640,-1769,-267,-1481,-582,301
906,-2058,-465,-1612,-448,29
1194,-2009,-769,-1745,-307,-489
1147,-2199,-1171,-1589,-131,-341
996,-2268,-1397,-1390,-362,77
637,-2359,-1424,-1322,-713,559
175,-2594,-1375,-1324,-971,1213
-6,-2731,-1246,-1408,-1143,1659
93,-2916,-1095,-1530,-1127,1756
216,-3118,-1106,-1623,-903,1661
376,-3286,-1120,-1609,-664,1403
610,-3344,-1153,-1479,-507,1026
758,-3357,-1191,-1270,-406,662
807,-3281,-1210,-980,-262,355
773,-3199,-1225,-753,-62,133
706,-3092,-1233,-588,-42,-9
811,-3012,-1219,-514,-96,-5
1008,-2991,-1247,-541,-75,114
1068,-3104,-1361,-558,2,237
1073,-3200,-1396,-474,15,317
1078,-3266,-1420,-338,45,369
1124,-3334,-1499,-233,95,420
1121,-3451,-1650,-127,128,488
1111,-3482,-1748,66,101,505
1071,-3416,-1782,312,124,430
1064,-3287,-1782,549,200,279
1079,-3180,-1789,739,359,128
1068,-3098,-1787,894,488,68
1063,-3057,-1784,1062,525,101
1009,-3030,-1715,1259,533,171
976,-2899,-1450,1457,527,227
979,-2738,-1138,1553,601,236
878,-2687,-962,1526,723,188
873,-2623,-886,1475,870,67
964,-2525,-863,1443,987,-39
1064,-2410,-789,1420,1082,-89
1130,-2267,-691,1374,1176,-109
1165,-2096,-515,1335,1152,-72
1062,-2000,-383,1291,1067,-25
804,-1997,-538,1196,1096,-79
581,-2118,-819,1099,1369,-94
533,-2162,-906,1212,1301,-15
390,-2060,-776,1453,1018,87
150,-1897,-515,1644,824,122
74,-1688,-264,1686,767,-9
111,-1519,-126,1581,880,-205
119,-1442,-85,1429,997,-335
116,-1388,-57,1278,1030,-374
120,-1381,-104,1092,1127,-392
101,-1402,-194,916,1140,-408
94,-1446,-286,857,1002,-379
152,-1427,-310,877,864,-359
135,-1352,-314,927,778,-368
57,-1308,-290,978,676,-412
82,-1179,-165,1024,590,-459
194,-1002,-17,988,457,-466
210,-945,48,888,354,-417
221,-896,112,795,316,-394
338,-762,222,674,402,-442
335,-692,247,539,476,-463
237,-659,264,434,444,-437
236,-588,259,324,474,-449
309,-490,293,225,476,-456
316,-421,332,117,442,-412
243,-386,365,11,362,-319
120,-396,350,-117,280,-223
37,-452,295,-256,134,-151
94,-455,282,-391,0,-91
104,-512,258,-523,-83,-10
-42,-622,222,-597,-150,16
-92,-691,176,-641,-179,-84
43,-763,112,-706,-163,-178
193,-833,102,-769,-230,-154
266,-877,170,-809,-402,-25
229,-865,275,-886,-576,97
68,-955,206,-1041,-627,97
-18,-1143,-9,-1210,-537,-35
38,-1312,-209,-1276,-454,-182
141,-1450,-355,-1241,-455,-232
85,-1619,-454,-1154,-532,-259
5,-1682,-373,-1026,-776,-296
-196,-1746,-299,-946,-1067,-353
-473,-1825,-327,-947,-1330,-521
-423,-1876,-426,-954,-1547,-876
-98,-1843,-490,-924,-1734,-1184
346,-1756,-496,-885,-1873,-1392
1045,-1547,-470,-861,-1884,-1425
1568,-1510,-577,-975,-1748,-1136
1491,-1855,-838,-1163,-1515,-679
1152,-2169,-1054,-1295,-1295,-335
1112,-2169,-1053,-1261,-1261,47
1239,-2176,-934,-1242,-1364,369
1263,-2221,-889,-1317,-1274,465
1196,-2341,-1064,-1394,-1046,424
1096,-2432,-1203,-1325,-996,328
1139,-2502,-1218,-1210,-914,156
1330,-2637,-1283,-1204,-603,-67
1611,-2795,-1383,-1214,-318,-170
1764,-3020,-1468,-1133,-190,-78
1850,-3193,-1477,-961,-331,148
1891,-3249,-1405,-732,-594,426
1707,-3275,-1312,-514,-798,685
1502,-3254,-1188,-366,-862,789
1384,-3209,-1064,-282,-734,682
1480,-3128,-974,-291,-451,439
1567,-3127,-967,-347,-128,224
1497,-3295,-1155,-406,249,60
1351,-3433,-1381,-296,426,-50
1278,-3362,-1348,-4,278,-95
1233,-3274,-1249,212,277,-77
1117,-3257,-1249,320,423,-39
928,-3232,-1237,452,427,-13
793,-3203,-1175,601,423,-54
786,-3134,-1140,722,481,-170
842,-3014,-1060,853,431,-246
866,-2914,-989,925,398,-258
814,-2848,-950,967,331,-224
703,-2766,-930,1019,238,-221
685,-2670,-996,1114,191,-292
764,-2599,-1049,1214,135,-309
779,-2547,-1021,1337,55,-274
745,-2442,-879,1461,-27,-234
728,-2334,-715,1572,-61,-274
705,-2162,-524,1645,-88,-351
677,-2036,-401,1599,-137,-344
702,-1927,-297,1542,-145,-389
814,-1770,-126,1455,-63,-511
742,-1725,-112,1282,93,-589
629,-1786,-309,1138,192,-696
776,-1811,-569,1091,261,-846
1016,-1799,-722,1140,211,-839
1127,-1740,-769,1255,65,-640
1071,-1710,-746,1366,-110,-382
1002,-1597,-611,1495,-275,-241
1016,-1373,-341,1565,-352,-250
1051,-1212,-88,1462,-291,-289
1075,-1198,16,1224,-66,-361
1085,-1211,0,1024,153,-452
1111,-1215,-48,871,173,-506
1137,-1241,-147,749,120,-484
1124,-1232,-254,664,93,-405
997,-1278,-482,628,111,-341
913,-1368,-748,665,121,-299
997,-1309,-790,803,15,-206
959,-1164,-580,965,-105,-49
780,-1030,-298,1017,-165,44
752,-862,-73,939,-72,3
719,-781,55,797,4,-65
649,-757,106,630,33,-116
695,-687,138,469,81,-182
850,-580,199,330,61,-208
914,-493,313,176,18,-142
910,-417,392,-6,-5,-63
839,-466,362,-199,-72,12
743,-538,229,-340,-163,62
687,-582,64,-377,-214,61
697,-661,-26,-357,-233,46
752,-643,0,-324,-286,48
786,-567,124,-318,-382,84
850,-514,276,-407,-386,125
992,-520,331,-610,-262,139
1036,-599,272,-821,-197,143
972,-713,136,-970,-167,112
1072,-751,-8,-1072,-134,30
1217,-797,-131,-1125,-134,49
1204,-864,-253,-1138,-152,162
1196,-912,-349,-1149,-103,238
1187,-1027,-419,-1139,-98,334
1111,-1157,-408,-1134,-150,489
950,-1276,-427,-1164,-182,608
826,-1362,-473,-1208,-242,665
749,-1435,-556,-1251,-260,670
708,-1493,-664,-1291,-210,613
623,-1509,-788,-1291,-130,507
630,-1585,-938,-1283,-14,364
823,-1676,-1022,-1261,100,265
985,-1750,-974,-1203,169,278
1002,-1983,-912,-1199,110,388
1072,-2071,-805,-1078,-106,548
1011,-2012,-532,-1018,-396,819
913,-2027,-460,-1165,-440,877
736,-2116,-608,-1294,-397,836
613,-2189,-800,-1317,-394,775
613,-2311,-958,-1340,-359,721
579,-2531,-1119,-1343,-283,685
377,-2842,-1297,-1227,-225,636
359,-2976,-1295,-1047,-197,463
558,-2905,-1034,-809,-137,346
651,-2897,-783,-664,-103,275
630,-2950,-656,-599,-88,214
723,-2905,-525,-561,-180,179
873,-2899,-483,-593,-298,182
1002,-2998,-593,-705,-341,198
1028,-3181,-762,-778,-344,215
1010,-3329,-948,-768,-380,227
1018,-3440,-1172,-691,-411,201
969,-3529,-1418,-547,-313,108
1042,-3507,-1484,-349,-118,-50
1166,-3454,-1459,-145,103,-211
1250,-3387,-1407,51,264,-330
1387,-3306,-1330,214,323,-367
1595,-3263,-1243,332,349,-331
1720,-3254,-1214,376,391,-257
1764,-3311,-1190,429,392,-155
1765,-3268,-1088,516,385,-77
1754,-3170,-1056,591,465,-109
1782,-3119,-1180,652,684,-275
1808,-3049,-1353,790,953,-467
1883,-2958,-1505,1028,1195,-583
1907,-2760,-1419,1321,1329,-592
1727,-2494,-1155,1547,1419,-494
1550,-2273,-872,1645,1452,-361
1377,-2150,-637,1628,1409,-231
1207,-2007,-509,1553,1331,-147
1073,-1842,-342,1493,1228,-95
926,-1663,-135,1391,1139,-43
735,-1600,-144,1209,1110,-36
594,-1679,-510,1037,1213,-100
602,-1814,-923,1008,1344,-145
677,-1850,-1040,1190,1326,-101
604,-1662,-770,1478,1170,-13
384,-1429,-398,1602,1039,47
224,-1325,-158,1494,982,20
191,-1246,-56,1324,967,-77
191,-1139,29,1136,981,-176
227,-1110,58,904,1037,-269
285,-1063,106,708,1000,-311
294,-914,259,566,825,-245
227,-812,346,379,607,-118
149,-828,240,160,384,11
53,-964,-107,19,281,72
55,-1113,-506,60,314,40
230,-1084,-565,278,281,-7
245,-941,-282,528,158,20
93,-775,1,613,43,33
135,-607,222,514,29,-46
218,-526,379,305,61,-100
154,-606,366,35,71,-97
115,-680,254,-184,12,-126
142,-731,168,-297,-129,-148
181,-739,102,-385,-250,-146
196,-765,2,-444,-314,-138
286,-794,-49,-477,-387,-127
416,-771,-30,-483,-463,-76
457,-771,-29,-509,-544,-8
574,-758,2,-554,-615,37
737,-682,88,-641,-582,90
749,-727,37,-826,-436,125
708,-843,-133,-982,-330,92
714,-873,-273,-1022,-335,103
631,-894,-364,-1026,-411,207
454,-1006,-466,-1038,-423,311
264,-1185,-550,-1021,-498,388
185,-1309,-550,-976,-598,435
138,-1415,-532,-963,-613,438
165,-1519,-524,-992,-632,383
379,-1569,-526,-1037,-647,313
555,-1630,-578,-1069,-636,255
646,-1722,-716,-1068,-595,168
811,-1769,-800,-1021,-513,112
821,-2019,-813,-1016,-630,216
672,-2197,-771,-887,-918,468
533,-2141,-532,-859,-1166,745
593,-2238,-536,-1045,-1053,637
771,-2420,-698,-1133,-838,427
1010,-2421,-673,-1097,-759,311
1178,-2429,-672,-1096,-675,233
1231,-2449,-756,-1077,-658,224
1325,-2463,-793,-1051,-690,269
1307,-2609,-857,-1046,-679,408
1179,-2895,-955,-1046,-707,496
1030,-3111,-942,-968,-829,577
823,-3186,-875,-872,-939,621
787,-3212,-871,-860,-842,490
1051,-3271,-985,-914,-509,190
1492,-3339,-1188,-934,-123,-91
1739,-3436,-1393,-782,87,-197
1814,-3500,-1432,-478,81,-130
1729,-3406,-1199,-135,-137,118
1392,-3371,-927,68,-321,393
1097,-3389,-771,122,-371,452
968,-3404,-650,139,-324,308
942,-3363,-603,157,-183,55
887,-3293,-664,151,5,-216
829,-3243,-781,152,192,-470
858,-3220,-1019,191,345,-660
992,-3213,-1299,340,382,-731
1215,-3155,-1407,605,307,-649
1237,-3091,-1333,929,207,-445
969,-2976,-1108,1223,67,-228
655,-2790,-750,1392,-23,-137
397,-2679,-564,1397,117,-278
246,-2576,-532,1363,131,-445
286,-2432,-487,1305,118,-543
335,-2347,-477,1186,174,-640
356,-2271,-488,1097,162,-736
447,-2209,-614,1029,162,-823
664,-2212,-860,1020,175,-891
847,-2244,-1051,1148,107,-843
958,-2264,-1162,1395,-33,-705
1061,-2136,-1032,1694,-235,-536
1026,-1860,-657,1938,-461,-380
906,-1642,-283,1948,-492,-332
857,-1505,-90,1753,-296,-453
952,-1490,-107,1465,38,-673
1064,-1554,-188,1246,261,-835
1182,-1541,-224,1120,251,-833
1192,-1537,-274,1000,139,-705
1071,-1553,-396,918,11,-547
1013,-1494,-472,883,-109,-462
981,-1491,-631,875,-115,-444
991,-1501,-756,918,-101,-433
971,-1429,-728,1039,-142,-364
892,-1311,-566,1135,-177,-278
858,-1170,-353,1128,-115,-258
833,-1071,-133,1041,-41,-270
877,-952,41,889,14,-296
928,-839,163,684,90,-325
864,-798,209,461,81,-332
932,-698,251,244,13,-324
996,-651,166,37,-65,-253
918,-733,-118,-124,-107,-157
953,-820,-449,-159,-116,-122
1121,-838,-598,-32,-122,-100
1219,-743,-513,168,-125,-28
1114,-562,-267,333,-80,33
933,-367,18,376,30,10
822,-237,231,294,131,-76
845,-169,383,114,178,-132
806,-216,425,-106,155,-83
761,-254,395,-319,130,-23
876,-281,325,-505,149,-9
1030,-376,223,-650,93,41
1062,-466,151,-712,-114,176
1122,-447,198,-737,-302,328
1221,-449,261,-809,-361,444
1195,-482,246,-913,-341,508
1101,-505,222,-993,-273,488
1033,-490,193,-1070,-223,412
933,-548,80,-1191,-137,373
816,-773,-101,-1320,-33,397
820,-963,-262,-1393,-27,458
786,-1109,-422,-1401,-154,550
822,-1174,-533,-1383,-250,638
914,-1156,-574,-1378,-238,705
681,-1266,-738,-1398,-192,728
566,-1386,-908,-1384,-148,620
713,-1544,-908,-1339,-137,549
728,-1698,-782,-1324,-252,673
540,-1999,-631,-1354,-562,853
350,-2202,-569,-1277,-936,905
77,-2295,-578,-1246,-1410,1016
21,-2438,-804,-1259,-1825,928
408,-2482,-969,-1161,-1931,756
1093,-2299,-861,-1087,-1634,672
1406,-2259,-1023,-1228,-1061,784
996,-2736,-1443,-1345,-402,863
728,-3025,-1729,-1313,34,601
898,-3006,-1598,-1025,44,483
978,-3023,-1265,-851,-94,633
896,-3176,-1110,-882,53,794
769,-3255,-1110,-943,268,729
709,-3252,-1052,-931,353,550
733,-3270,-1043,-921,522,347
745,-3319,-1158,-872,710,65
777,-3288,-1217,-714,592,-46
865,-3225,-1264,-571,348,9
936,-3192,-1378,-467,198,154
886,-3320,-1508,-331,76,394
847,-3409,-1419,-107,-62,598
768,-3353,-1146,144,-170,682
666,-3288,-948,301,-258,634
614,-3280,-879,351,-203,468
669,-3229,-906,353,58,185
817,-3205,-1053,339,281,-90
1010,-3197,-1180,404,357,-235
1202,-3142,-1199,518,443,-262
1309,-3110,-1217,622,569,-246
1356,-3137,-1263,726,655,-212
1377,-3198,-1283,892,730,-208
1394,-3154,-1167,1111,787,-242
1407,-2998,-1011,1288,810,-295
1433,-2829,-901,1383,826,-349
1522,-2653,-823,1407,947,-395
1541,-2473,-790,1348,1179,-398
1424,-2348,-749,1263,1239,-317
1370,-2145,-504,1219,1093,-215
1259,-1947,-327,1064,1077,-150
1075,-1948,-453,849,1154,-157
938,-1978,-691,735,1208,-187
948,-1917,-761,754,1182,-158
958,-1831,-756,834,1158,-95
899,-1697,-705,955,1167,-31
713,-1554,-603,1070,1155,27
508,-1374,-441,1133,1143,17
327,-1240,-319,1100,1243,-77
189,-1216,-346,1016,1323,-189
108,-1225,-422,972,1288,-232
37,-1187,-438,1018,1150,-241
36,-1078,-346,1065,933,-230
45,-989,-206,1056,730,-134
14,-935,-74,983,582,-18
-92,-916,18,872,435,39
-160,-921,57,755,290,-28
-9,-828,138,635,192,-140
122,-763,147,454,206,-183
161,-792,91,273,159,-139
193,-857,-18,136,68,-64
264,-944,-118,68,-44,31
332,-977,-111,69,-169,112
281,-942,-32,89,-246,139
218,-910,62,71,-247,115
155,-869,150,20,-244,47
113,-847,194,-69,-259,-32
165,-841,144,-184,-264,-100
281,-840,86,-282,-331,-95
432,-788,94,-378,-411,-14
424,-759,124,-512,-356,58
417,-789,77,-675,-149,0
639,-845,-49,-816,71,-130
759,-943,-166,-854,23,-102
710,-1006,-230,-824,-171,70
660,-970,-175,-785,-384,228
487,-972,-127,-801,-568,371
199,-1025,-127,-874,-668,459
-12,-1122,-212,-953,-699,435
-23,-1259,-350,-1010,-738,387
88,-1363,-393,-1035,-765,393
230,-1383,-293,-1097,-689,362
315,-1402,-301,-1243,-572,267
466,-1624,-496,-1435,-485,101
700,-1682,-681,-1503,-572,95
774,-1766,-832,-1522,-826,273
725,-1908,-953,-1518,-1101,470
668,-2061,-1060,-1456,-1238,596
527,-2168,-1011,-1329,-1448,746
254,-2280,-876,-1227,-1571,871
180,-2335,-720,-1225,-1384,761
449,-2390,-749,-1374,-996,421
838,-2507,-924,-1357,-635,101
1072,-2567,-1094,-1218,-444,-137
1095,-2554,-1155,-982,-434,-193
1086,-2351,-936,-718,-566,-55
983,-2168,-741,-648,-628,130
867,-2191,-748,-712,-605,226
911,-2184,-658,-724,-581,207
960,-2237,-582,-772,-454,110
935,-2440,-656,-880,-311,-8
946,-2557,-764,-899,-314,-94
971,-2614,-863,-885,-314,-93
904,-2715,-1058,-869,-279,-63
839,-2844,-1273,-784,-273,-40
920,-2895,-1355,-618,-343,-26
962,-2903,-1342,-461,-391,14
842,-2978,-1322,-368,-367,26
805,-3028,-1315,-303,-355,-33
826,-3102,-1330,-262,-337,-80
816,-3245,-1443,-240,-266,-102
813,-3351,-1508,-149,-221,-120
774,-3381,-1534,-5,-132,-154
578,-3410,-1644,153,-67,-227
537,-3406,-1730,363,-63,-332
695,-3309,-1673,594,-67,-377
698,-3266,-1565,770,-27,-368
653,-3222,-1456,909,9,-396
681,-3152,-1319,1044,-15,-416
689,-3032,-1134,1152,-68,-395
717,-2859,-943,1209,-30,-412
721,-2744,-892,1173,72,-459
768,-2696,-949,1138,200,-514
767,-2640,-1006,1172,265,-545
752,-2669,-1159,1269,281,-562
811,-2616,-1226,1476,177,-504
965,-2455,-1052,1705,65,-379
1049,-2312,-804,1824,29,-237
852,-2168,-564,1867,73,-196
717,-2026,-458,1810,206,-352
748,-1891,-402,1725,315,-541
672,-1841,-464,1607,372,-593
739,-1835,-549,1516,335,-578
822,-1836,-640,1478,239,-500
758,-1842,-684,1501,98,-387
707,-1804,-670,1561,18,-342
829,-1721,-626,1602,17,-356
910,-1645,-563,1621,6,-313
829,-1536,-412,1635,-46,-237
750,-1388,-258,1627,29,-327
739,-1242,-141,1520,140,-483
707,-1146,-84,1313,244,-497
652,-1158,-134,1084,288,-473
643,-1257,-262,971,229,-427
654,-1234,-279,959,152,-356
654,-1181,-258,965,104,-331
764,-1065,-155,970,40,-297
808,-972,-34,954,-51,-219
902,-867,48,890,-169,-142
1059,-769,157,807,-280,-69
1072,-700,275,684,-291,-9
987,-654,352,515,-110,-61
976,-629,287,327,132,-198
998,-663,132,179,202,-262
1046,-695,-25,72,231,-228
975,-771,-187,16,223,-122
979,-778,-229,19,150,-25
1013,-708,-136,18,164,56
804,-677,-34,-38,144,136
627,-657,20,-127,69,166
663,-608,45,-235,-18,158
705,-653,-15,-371,-45,168
682,-736,-80,-477,-20,175
682,-753,-35,-524,-43,172
675,-754,13,-576,-147,242
650,-772,48,-661,-248,363
657,-800,69,-764,-246,413
671,-795,96,-857,-172,362
706,-775,108,-950,-31,268
717,-785,76,-1072,81,209
731,-800,-19,-1184,118,168
834,-836,-84,-1262,84,183
884,-927,-124,-1356,38,272
853,-1106,-218,-1444,-32,404
769,-1302,-287,-1473,-140,539
632,-1389,-315,-1449,-239,602
515,-1355,-245,-1412,-339,581
413,-1335,-218,-1453,-332,514
425,-1300,-276,-1588,-208,402
503,-1429,-416,-1784,-95,275
826,-1703,-680,-1931,6,159
1143,-1883,-826,-1974,-100,398
1182,-2044,-829,-1930,-369,711
1106,-2153,-759,-1837,-515,880
925,-2124,-623,-1720,-617,974
655,-2142,-665,-1766,-648,977
497,-2233,-900,-1823,-506,904
438,-2374,-1206,-1879,-374,749
369,-2552,-1544,-1835,-264,653
497,-2688,-1715,-1732,-72,546
634,-2880,-1742,-1614,152,446
650,-3116,-1678,-1440,180,492
649,-3179,-1470,-1236,18,607
583,-3116,-1221,-1048,-131,674
503,-3092,-1130,-982,-184,638
434,-3108,-1215,-988,-119,501
351,-3152,-1388,-992,-36,379
357,-3221,-1630,-952,1,284
534,-3301,-1828,-845,25,229
674,-3369,-1926,-635,39,254
757,-3430,-1825,-358,57,325
813,-3438,-1615,-98,49,381
780,-3481,-1500,94,17,404
778,-3486,-1480,253,-19,397
735,-3441,-1476,385,-53,392
667,-3422,-1535,468,54,300
664,-3447,-1641,548,232,140
723,-3451,-1739,680,350,19
806,-3406,-1751,866,402,-28
832,-3339,-1705,1067,467,-54
767,-3266,-1623,1278,572,-83
739,-3177,-1484,1483,650,-144
852,-3002,-1260,1652,680,-222
1005,-2862,-1151,1715,737,-268
1120,-2789,-1177,1737,781,-272
1145,-2678,-1146,1794,827,-249
1112,-2539,-1060,1843,869,-228
1062,-2401,-934,1884,889,-205
975,-2217,-731,1885,869,-153
916,-2011,-461,1806,878,-118
826,-1826,-256,1648,840,-94
751,-1695,-126,1465,758,-72
683,-1534,-60,1257,739,-41
479,-1515,-231,1023,810,-31
340,-1635,-625,875,894,-54
453,-1712,-880,933,933,-24
579,-1686,-918,1163,903,49
475,-1553,-748,1485,862,111
318,-1281,-361,1726,777,118
208,-999,101,1809,732,36
88,-835,429,1682,829,-71
29,-758,606,1411,924,-181
105,-730,661,1082,885,-253
167,-742,624,744,731,-198
114,-822,411,462,597,-127
20,-945,45,291,454,-117
-8,-1096,-326,258,363,-107
122,-1116,-479,323,275,-73
223,-1072,-408,449,152,-18
198,-933,-166,542,59,-3
128,-783,47,487,47,-30
142,-711,211,326,28,-67
149,-671,311,91,115,-100
105,-727,250,-154,216,-141
102,-798,150,-310,133,-150
87,-822,77,-380,-44,-106
86,-866,-10,-421,-168,-50
136,-887,-45,-426,-250,-14
114,-859,30,-391,-382,21
116,-796,155,-403,-456,29
236,-769,269,-528,-404,4
365,-763,324,-715,-305,-20
309,-879,258,-911,-174,-48
253,-987,140,-1038,-126,-109
315,-1015,48,-1096,-193,-133
322,-1053,-34,-1138,-322,-67
278,-1096,-151,-1184,-365,-25
221,-1114,-245,-1195,-409,-7
136,-1136,-335,-1194,-507,47
84,-1206,-419,-1228,-576,81
58,-1358,-433,-1270,-606,97
24,-1503,-421,-1331,-560,69
-13,-1605,-415,-1392,-505,-21
5,-1718,-513,-1455,-538,-144
25,-1776,-643,-1470,-635,-142
66,-1824,-782,-1500,-762,-107
236,-1880,-943,-1513,-867,-99
385,-1902,-1080,-1453,-935,-61
486,-1971,-1252,-1443,-930,-59
608,-2128,-1421,-1349,-815,-69
738,-2259,-1400,-1184,-737,-88
793,-2325,-1286,-1021,-727,-10
744,-2394,-1119,-863,-831,136
654,-2366,-900,-724,-1013,262
534,-2250,-691,-660,-1123,289
572,-2171,-603,-755,-1111,226
799,-2218,-703,-967,-943,172
1045,-2397,-971,-1163,-699,159
1188,-2710,-1250,-1216,-533,161
1241,-2894,-1326,-1067,-524,197
1201,-2924,-1225,-821,-635,265
1102,-2954,-1110,-667,-640,329
1031,-3028,-1114,-613,-591,381
845,-3125,-1210,-555,-598,403
797,-3188,-1381,-489,-557,337
950,-3286,-1612,-453,-386,234
1057,-3408,-1739,-348,-214,177
1064,-3513,-1723,-173,-116,166
1010,-3553,-1585,24,-94,217
858,-3494,-1346,197,-149,267
666,-3377,-1150,273,-74,192
449,-3334,-1149,290,25,21
400,-3292,-1212,338,21,-155
540,-3148,-1198,404,25,-302
556,-3042,-1268,442,130,-384
387,-3105,-1522,526,242,-445
385,-3029,-1537,748,260,-534
383,-2788,-1297,976,356,-613
179,-2658,-1094,1107,409,-654
26,-2563,-972,1174,377,-712
155,-2407,-826,1231,225,-756
325,-2319,-670,1218,86,-721
447,-2276,-562,1124,0,-657
456,-2273,-475,1046,-112,-610
472,-2234,-399,984,-208,-612
548,-2225,-582,915,-178,-683
610,-2390,-1090,924,-43,-772
767,-2515,-1397,1143,13,-801
921,-2360,-1222,1543,-107,-743
872,-2126,-795,1833,-203,-658
720,-1926,-421,1882,-231,-641
612,-1855,-279,1728,-146,-711
658,-1873,-318,1506,85,-845
833,-1883,-444,1331,278,-965
1024,-1838,-373,1238,260,-963
1062,-1713,-209,1124,169,-837
921,-1702,-314,1007,96,-746
865,-1808,-694,930,106,-756
1062,-1752,-871,1008,85,-705
1078,-1662,-801,1164,25,-514
848,-1538,-567,1295,-61,-382
696,-1366,-331,1336,27,-473
701,-1237,-142,1292,80,-617
702,-1230,-119,1142,96,-702
726,-1188,-115,993,74,-720
780,-1133,-49,849,36,-675
789,-1101,-38,683,0,-614
810,-1133,-232,531,2,-582
957,-1218,-509,484,-20,-519
1155,-1197,-560,579,-153,-344
1234,-1086,-393,704,-247,-140
1142,-929,-131,776,-321,-6
1005,-776,107,743,-374,42
908,-709,262,579,-271,-2
885,-675,299,359,-39,-129
890,-706,126,149,214,-275
890,-788,-96,49,247,-324
887,-779,-196,46,181,-263
823,-793,-268,59,166,-150
736,-774,-200,82,70,-21
729,-672,11,64,-39,74
702,-604,179,-54,-88,128
636,-613,215,-225,-121,153
643,-645,165,-398,-163,153
690,-666,124,-533,-197,156
776,-697,63,-653,-159,150
865,-723,17,-736,-170,179
892,-744,3,-778,-227,248
944,-726,47,-831,-258,314
1046,-737,81,-919,-262,379
1098,-791,101,-1023,-247,478
1022,-863,78,-1121,-268,576
928,-889,33,-1197,-310,628
820,-887,-16,-1287,-340,693
646,-954,-177,-1414,-340,732
569,-1094,-385,-1528,-338,729
571,-1327,-566,-1597,-330,757
659,-1508,-660,-1613,-312,784
712,-1625,-682,-1580,-308,778
770,-1738,-704,-1546,-258,727
818,-1806,-750,-1531,-179,712
814,-1931,-826,-1520,-134,646
783,-1952,-870,-1458,-145,602
671,-1930,-926,-1475,-256,667
582,-2008,-1078,-1546,-367,737
606,-2242,-1274,-1575,-329,763
722,-2429,-1291,-1535,-315,768
813,-2606,-1280,-1455,-277,782
797,-2711,-1176,-1326,-257,808
758,-2759,-1078,-1266,-188,713
734,-2781,-1104,-1199,-81,580
710,-2824,-1208,-1131,-11,469
685,-2865,-1368,-1048,41,393
642,-2949,-1542,-951,62,345
626,-2998,-1590,-776,-19,354
664,-3021,-1480,-584,-108,372
742,-3061,-1345,-435,-160,373
818,-3195,-1258,-373,-106,382
758,-3396,-1231,-284,8,411
568,-3538,-1238,-137,44,393
493,-3511,-1183,42,-26,303
504,-3413,-1106,165,-29,202
513,-3377,-1132,194,117,100
702,-3315,-1184,278,198,6
927,-3176,-1154,393,206,-26
1021,-3105,-1166,461,269,-47
1049,-3065,-1262,553,318,-73
992,-3017,-1278,707,346,-60
916,-2956,-1248,866,332,-3
787,-2921,-1149,1029,209,78
698,-2808,-930,1145,124,103
622,-2704,-753,1163,226,-16
621,-2666,-696,1104,412,-255
816,-2621,-693,1059,593,-470
1054,-2584,-706,1023,699,-542
1249,-2539,-676,1011,722,-508
1379,-2426,-582,1006,745,-454
1527,-2284,-460,970,773,-381
1647,-2150,-348,881,825,-270
1603,-2093,-381,764,926,-170
1492,-2147,-613,671,998,-96
1379,-2184,-848,716,984,-6
1186,-2153,-937,862,935,120
931,-2065,-849,1023,942,186
673,-1944,-634,1132,1054,117
459,-1876,-501,1145,1299,-101
409,-1773,-404,1105,1440,-339
367,-1730,-329,997,1541,-367
358,-1702,-334,858,1501,-279
388,-1613,-326,795,1264,-197
312,-1544,-302,749,1054,-106
208,-1492,-362,700,868,-15
166,-1487,-523,688,725,18
168,-1489,-689,735,648,-3
152,-1488,-810,874,564,-23
116,-1383,-658,1079,437,-43
39,-1152,-293,1235,384,-73
69,-885,70,1178,465,-165
10,-782,244,943,596,-231
-122,-859,211,653,678,-258
-10,-851,121,407,662,-287
72,-861,58,257,526,-249
77,-847,10,139,425,-215
83,-833,-84,59,376,-237
98,-891,-249,38,284,-237
209,-905,-268,107,146,-197
309,-803,-52,208,-52,-101
277,-696,212,207,-231,4
225,-607,410,86,-285,26
191,-616,502,-104,-200,-12
145,-639,469,-336,-141,-78
154,-728,321,-565,-40,-171
239,-797,169,-708,-8,-221
294,-876,52,-781,-53,-178
356,-934,-11,-827,-176,-66
456,-983,-56,-865,-306,54
549,-1019,-57,-893,-399,93
525,-1095,-109,-927,-386,55
467,-1197,-180,-942,-400,3
333,-1299,-264,-921,-474,-13
294,-1311,-249,-893,-567,-44
482,-1187,-83,-881,-660,-35
577,-1194,27,-1008,-611,97
276,-1446,-121,-1230,-486,190
130,-1662,-373,-1347,-390,71
439,-1763,-443,-1320,-499,-119
700,-1756,-435,-1291,-643,-23
734,-1797,-475,-1361,-660,155
621,-1944,-655,-1377,-684,227
394,-2061,-823,-1286,-752,230
405,-2115,-887,-1221,-825,201
532,-2145,-780,-1134,-925,275
534,-2197,-706,-1162,-898,286
578,-2319,-803,-1235,-736,147
760,-2419,-919,-1230,-603,-14
952,-2481,-1006,-1166,-531,-126
1088,-2590,-1128,-1076,-476,-132
1147,-2662,-1151,-940,-561,-1
1070,-2681,-1079,-792,-764,230
907,-2742,-1025,-685,-959,452
780,-2738,-961,-619,-1033,569
749,-2753,-914,-590,-928,521
877,-2795,-857,-597,-705,336
1070,-2862,-847,-599,-487,137
1218,-2910,-847,-569,-403,16
1301,-2997,-888,-541,-386,15
1322,-3100,-975,-512,-373,41
1298,-3182,-1044,-457,-408,77
1227,-3256,-1141,-391,-439,119
1163,-3361,-1328,-299,-401,100
1099,-3390,-1437,-127,-346,10
1064,-3331,-1489,68,-234,-123
1037,-3253,-1462,258,-98,-251
962,-3148,-1353,427,-26,-328
922,-3032,-1222,523,43,-355
732,-2995,-1152,576,80,-358
510,-2922,-1066,653,80,-424
425,-2793,-941,720,80,-531
391,-2702,-877,703,128,-626
409,-2677,-972,664,224,-725
605,-2694,-1145,672,323,-800
816,-2758,-1282,790,275,-780
959,-2727,-1204,1028,154,-697
1084,-2586,-913,1252,51,-584
1060,-2485,-641,1355,-31,-454
915,-2441,-501,1367,-74,-405
859,-2358,-409,1327,-67,-454
852,-2294,-400,1230,-1,-561
829,-2261,-491,1134,40,-681
894,-2231,-662,1087,0,-740
982,-2332,-1022,1099,27,-709
1107,-2404,-1290,1259,55,-662
1371,-2268,-1211,1548,126,-598
1309,-2119,-914,1816,141,-466
1001,-1911,-614,1947,106,-407
923,-1701,-328,1904,166,-470
908,-1670,-282,1716,302,-545
881,-1662,-338,1598,433,-682
964,-1561,-300,1507,439,-780
948,-1431,-159,1381,292,-673
838,-1333,-4,1200,75,-505
715,-1263,37,1015,-86,-384
651,-1252,-196,821,-110,-377
737,-1354,-625,732,19,-498
893,-1461,-977,880,125,-560
1070,-1361,-963,1210,81,-454
1052,-1158,-549,1511,-30,-231
852,-907,-55,1581,-135,-57
685,-789,296,1392,-130,-20
652,-777,413,1069,24,-108
700,-821,338,750,207,-253
750,-883,137,514,330,-387
843,-881,67,412,274,-423
904,-838,87,340,140,-342
894,-807,73,244,25,-231
878,-855,-35,187,-13,-160
906,-923,-174,205,-6,-125
1013,-881,-139,298,-55,-93
1065,-747,69,368,-155,-2
985,-638,288,309,-177,103
887,-588,390,136,-87,94
837,-585,362,-56,44,-10
815,-569,294,-216,109,-75
789,-613,242,-363,82,-58
815,-591,218,-445,-1,15
800,-602,184,-532,-113,148
820,-676,82,-628,-206,273
915,-691,105,-666,-260,331
946,-691,137,-708,-233,330
961,-708,170,-777,-161,290
984,-678,211,-864,-181,293
966,-671,260,-961,-295,371
934,-690,231,-1125,-276,445
907,-798,58,-1310,-260,490
841,-923,-156,-1431,-252,536
807,-1131,-428,-1483,-255,610
879,-1253,-530,-1447,-291,702
958,-1294,-525,-1411,-186,717
952,-1370,-537,-1407,-26,640
899,-1433,-561,-1389,89,542
883,-1425,-549,-1361,121,484
853,-1434,-523,-1361,75,508
823,-1546,-532,-1400,16,591
867,-1649,-549,-1432,-80,675
841,-1819,-522,-1495,-174,791
710,-1950,-464,-1491,-213,852
434,-1953,-379,-1553,-174,908
354,-2101,-556,-1725,-80,731
477,-2224,-778,-1779,-24,586
581,-2294,-893,-1747,-30,569
733,-2425,-998,-1793,-61,568
877,-2605,-1090,-1798,-123,688
944,-2805,-1100,-1743,-227,834
915,-2998,-1127,-1660,-293,891
850,-3139,-1138,-1510,-299,845
792,-3237,-1139,-1352,-235,701
736,-3266,-1165,-1223,-131,546
750,-3307,-1210,-1121,-59,414
827,-3360,-1312,-1055,34,308
886,-3488,-1489,-984,125,220
958,-3585,-1590,-810,121,202
987,-3592,-1583,-559,65,233
987,-3571,-1529,-330,74,205
1034,-3533,-1469,-114,158,102
1085,-3500,-1388,76,247,1
1114,-3470,-1277,238,347,-105
1102,-3428,-1188,369,403,-190
1087,-3356,-1122,464,445,-258
1098,-3360,-1147,489,546,-330
1197,-3290,-1148,597,600,-379
1313,-3223,-1136,718,615,-345
1374,-3208,-1255,791,690,-330
1452,-3151,-1393,940,740,-346
1495,-3029,-1431,1169,783,-328
1481,-2859,-1319,1394,865,-299
1380,-2663,-1126,1552,954,-279
1290,-2516,-951,1616,1080,-282
1165,-2402,-832,1621,1166,-277
1007,-2321,-735,1602,1199,-267
896,-2217,-612,1569,1225,-290
813,-2061,-448,1512,1229,-315
752,-1884,-219,1408,1190,-329
751,-1703,-45,1238,1160,-337
708,-1539,6,1015,1111,-316
706,-1446,-26,791,1044,-278
796,-1388,-190,594,1033,-204
827,-1555,-584,491,1024,-83
928,-1651,-809,635,895,59
1015,-1491,-644,946,758,201
917,-1221,-275,1159,747,315
598,-1060,-2,1183,847,305
329,-926,235,1118,929,165
264,-793,430,975,917,-28
323,-712,509,744,845,-127
262,-707,518,426,799,-127
135,-818,242,91,793,-208
71,-984,-165,-109,746,-322
175,-1162,-610,-179,736,-374
321,-1333,-909,-104,627,-247
303,-1408,-960,92,379,8
235,-1261,-638,384,22,252
190,-1035,-190,488,-157,361
56,-936,33,357,-42,332
-31,-930,68,185,44,202
14,-912,90,37,124,45
75,-901,52,-102,203,-105
69,-957,-52,-191,137,-171
