ax,ay,az,gx,gy,gz
-2441,-1735,-709,-1609,435,666
-2441,-1804,-730,-1626,158,546
-2467,-1923,-769,-1629,-173,485
-2522,-2085,-769,-1597,-467,423
-2486,-2194,-732,-1560,-717,295
-2357,-2249,-709,-1567,-904,142
-2313,-2328,-837,-1604,-809,-4
-2338,-2441,-1111,-1600,-627,-113
-2269,-2516,-1291,-1478,-771,-187
-2111,-2484,-1225,-1310,-1071,-227
-2142,-2586,-1067,-1190,-1260,-218
-2234,-2631,-990,-1106,-1353,-279
-2229,-2606,-996,-1063,-1375,-412
-2172,-2685,-1095,-1040,-1468,-566
-1950,-2729,-1202,-1006,-1487,-788
-1840,-2850,-1291,-934,-1402,-946
-1747,-2978,-1304,-814,-1386,-1102
-1456,-2991,-1337,-708,-1488,-1251
-1232,-3099,-1424,-628,-1547,-1275
-1066,-3258,-1522,-491,-1639,-1270
-818,-3321,-1574,-326,-1845,-1278
-687,-3407,-1637,-135,-1836,-1219
-605,-3520,-1595,55,-1980,-1130
-385,-3552,-1587,182,-2135,-1117
-271,-3656,-1660,311,-2020,-1136
-192,-3767,-1729,467,-1929,-1174
7,-3814,-1789,667,-1846,-1249
236,-3800,-1804,906,-1762,-1277
387,-3732,-1747,1135,-1704,-1253
436,-3633,-1644,1312,-1631,-1184
403,-3497,-1534,1455,-1604,-1081
338,-3349,-1425,1559,-1618,-981
233,-3202,-1325,1618,-1584,-897
45,-2998,-1196,1654,-1509,-848
-119,-2796,-1007,1636,-1436,-879
-163,-2687,-883,1564,-1338,-964
-108,-2569,-902,1496,-1149,-1035
-77,-2458,-1008,1457,-989,-1060
-109,-2337,-1137,1467,-949,-1029
-170,-2242,-1182,1507,-1020,-1021
-178,-2137,-1135,1566,-1161,-1055
-118,-2059,-1047,1611,-1230,-1095
-68,-1943,-827,1641,-1148,-1119
5,-1807,-613,1566,-1068,-1121
90,-1750,-473,1418,-1026,-1069
161,-1665,-310,1253,-968,-972
212,-1570,-190,1052,-902,-844
189,-1520,-243,836,-829,-678
94,-1507,-470,686,-791,-507
-2,-1489,-792,696,-900,-369
7,-1396,-885,849,-1226,-267
-87,-1311,-672,1019,-1480,-223
-254,-1204,-416,1077,-1249,-343
-333,-1116,-234,1032,-803,-587
-237,-1013,-144,913,-542,-782
-83,-922,-117,779,-384,-847
-8,-898,-132,669,-233,-830
20,-850,-241,581,-422,-687
3,-798,-309,549,-772,-506
7,-771,-294,561,-1055,-373
56,-682,-108,575,-1297,-293
-30,-591,153,496,-1351,-271
-172,-585,283,288,-1159,-372
-184,-585,234,49,-947,-579
-60,-594,71,-146,-740,-784
126,-656,-120,-249,-510,-927
285,-675,-205,-247,-442,-967
361,-649,-169,-218,-510,-902
457,-649,-66,-226,-625,-804
549,-620,57,-282,-669,-722
488,-619,81,-414,-695,-627
432,-667,-29,-551,-796,-549
513,-736,-137,-619,-905,-511
517,-764,-180,-646,-886,-480
466,-797,-220,-683,-764,-491
549,-837,-262,-725,-619,-566
750,-894,-303,-765,-524,-614
872,-928,-304,-785,-405,-592
864,-992,-248,-802,-314,-501
827,-978,-123,-865,-332,-423
876,-1012,-103,-1023,-418,-359
947,-1120,-315,-1178,-467,-259
977,-1210,-539,-1228,-504,-163
1050,-1245,-607,-1218,-525,-98
1123,-1344,-619,-1226,-508,-33
1181,-1380,-599,-1238,-445,6
1201,-1420,-552,-1252,-254,-8
1178,-1448,-615,-1341,22,-47
1107,-1524,-685,-1386,164,-79
1072,-1524,-722,-1416,140,-63
1158,-1555,-813,-1496,47,-17
1257,-1606,-922,-1518,24,42
1355,-1658,-1080,-1515,115,108
1324,-1822,-1105,-1472,62,244
1374,-1844,-907,-1391,-95,311
1403,-1915,-906,-1479,-27,357
1266,-2042,-1072,-1566,168,430
1217,-2136,-1300,-1611,299,460
1217,-2271,-1523,-1608,384,493
1163,-2436,-1586,-1525,364,526
1183,-2552,-1591,-1448,369,501
1222,-2647,-1598,-1386,458,442
1284,-2736,-1592,-1312,555,415
1479,-2823,-1746,-1250,765,391
1539,-2888,-1838,-1123,946,472
1527,-2952,-1753,-986,940,548
1623,-2956,-1597,-910,941,573
1600,-2961,-1505,-908,1059,618
1485,-2977,-1492,-897,1184,703
1429,-3087,-1594,-872,1304,804
1254,-3188,-1621,-775,1384,915
1076,-3286,-1709,-680,1459,958
895,-3363,-1783,-552,1556,921
732,-3432,-1792,-404,1623,831
605,-3516,-1786,-245,1719,706
500,-3556,-1664,-64,1728,579
490,-3549,-1589,70,1753,439
495,-3546,-1601,171,1846,306
469,-3521,-1648,299,1884,218
395,-3457,-1692,436,1860,198
305,-3369,-1709,548,1757,202
212,-3230,-1654,686,1697,157
122,-3134,-1614,822,1715,91
106,-2999,-1614,963,1739,-23
113,-2834,-1527,1094,1696,-127
109,-2698,-1403,1191,1716,-237
185,-2564,-1286,1253,1794,-363
267,-2401,-1213,1290,1771,-403
305,-2241,-1066,1317,1656,-351
349,-2105,-928,1313,1524,-275
371,-1980,-818,1294,1403,-189
373,-1863,-734,1259,1254,-103
251,-1792,-691,1214,1107,-36
77,-1737,-637,1200,1157,-135
55,-1701,-611,1184,1439,-408
205,-1675,-687,1156,1672,-642
319,-1598,-682,1165,1672,-698
436,-1521,-538,1127,1446,-618
586,-1471,-443,1018,1140,-487
747,-1407,-390,901,930,-297
831,-1358,-371,794,790,-66
742,-1307,-378,714,660,176
649,-1270,-399,664,563,335
674,-1207,-396,649,576,369
607,-1130,-313,642,744,355
416,-1096,-212,613,1061,348
449,-1045,-165,558,1282,301
603,-946,-170,492,1288,366
664,-879,-194,440,1211,600
712,-811,-210,424,977,924
787,-720,-60,456,581,1311
825,-601,152,404,245,1647
503,-582,225,249,203,1870
86,-643,189,86,543,1840
-26,-668,82,-37,979,1607
68,-650,-95,-111,1247,1437
136,-663,-187,-111,1340,1435
154,-657,-63,-90,1207,1544
233,-628,53,-145,933,1720
206,-621,84,-250,750,1930
127,-638,10,-375,716,2089
53,-677,-108,-472,690,2205
-136,-712,-167,-501,651,2308
-391,-755,-237,-511,638,2326
-618,-803,-232,-502,707,2220
-797,-846,-151,-519,843,2030
-895,-882,-178,-609,966,1858
-977,-945,-274,-695,932,1787
-1049,-1032,-370,-727,707,1788
-1023,-1065,-398,-700,412,1837
-1136,-1037,-241,-667,187,1915
-1426,-1082,-66,-721,64,1938
-1636,-1121,21,-832,37,1823
-1838,-1206,56,-959,92,1626
-1961,-1318,1,-1057,225,1422
-1903,-1370,-121,-1142,414,1215
-1927,-1468,-198,-1247,546,1041
-2050,-1556,-241,-1298,493,997
-2108,-1646,-300,-1351,321,932
-2134,-1692,-336,-1376,163,863
-2211,-1716,-292,-1410,51,772
-2313,-1831,-312,-1488,51,641
-2412,-1927,-355,-1538,48,474
-2443,-2030,-490,-1586,-29,297
-2376,-2112,-616,-1609,-158,132
-2228,-2198,-700,-1612,-321,10
-2086,-2347,-781,-1603,-525,-57
-2057,-2537,-886,-1556,-645,-103
-1993,-2665,-974,-1478,-660,-190
-1851,-2764,-1067,-1364,-681,-264
-1841,-2786,-1038,-1214,-804,-218
-1986,-2790,-927,-1094,-988,-111
-2151,-2812,-832,-1012,-1263,-58
-2220,-2858,-799,-997,-1444,-135
-2163,-2974,-960,-1043,-1364,-365
-2024,-3128,-1231,-1037,-1208,-638
-1783,-3211,-1386,-898,-1133,-884
-1568,-3208,-1339,-692,-1118,-1023
-1417,-3192,-1261,-528,-1184,-1082
-1295,-3231,-1277,-412,-1286,-1112
-1225,-3263,-1331,-273,-1452,-1106
-1079,-3212,-1294,-147,-1666,-1097
-977,-3197,-1314,-64,-1738,-1064
-937,-3254,-1440,14,-1836,-1038
-890,-3303,-1546,130,-1911,-1098
-816,-3329,-1543,296,-1826,-1220
-611,-3301,-1476,464,-1751,-1372
-387,-3237,-1512,581,-1583,-1481
-289,-3216,-1570,717,-1445,-1481
-186,-3175,-1545,883,-1514,-1434
-62,-3122,-1504,1038,-1619,-1396
-7,-3002,-1413,1174,-1597,-1357
19,-2886,-1319,1278,-1504,-1317
-36,-2746,-1273,1358,-1408,-1275
-168,-2598,-1209,1426,-1303,-1230
-243,-2473,-1108,1492,-1295,-1196
-188,-2329,-993,1537,-1466,-1157
-155,-2184,-852,1535,-1548,-1111
-204,-2056,-778,1467,-1481,-1071
-211,-1996,-858,1365,-1421,-1061
-157,-1943,-948,1328,-1384,-1067
-65,-1825,-831,1356,-1421,-1047
-18,-1699,-649,1322,-1461,-963
-35,-1626,-634,1213,-1465,-854
-115,-1550,-729,1135,-1420,-776
-232,-1423,-788,1114,-1374,-730
-322,-1286,-715,1113,-1451,-718
-325,-1154,-624,1075,-1529,-782
-348,-1061,-572,1024,-1368,-933
-380,-946,-474,989,-1095,-1137
-342,-842,-337,920,-840,-1345
-202,-755,-256,802,-625,-1518
-23,-691,-224,675,-557,-1579
184,-697,-194,544,-596,-1562
299,-687,-282,446,-618,-1475
293,-676,-332,412,-777,-1310
363,-636,-256,392,-1058,-1152
457,-626,-127,320,-1199,-1032
435,-607,-23,212,-1229,-945
371,-627,-94,63,-1146,-954
398,-685,-268,-46,-951,-1053
494,-707,-423,-65,-747,-1167
635,-728,-514,-42,-629,-1225
751,-699,-413,-6,-599,-1198
756,-637,-216,-31,-608,-1101
767,-595,-99,-137,-640,-998
743,-552,-31,-277,-727,-881
708,-598,20,-429,-886,-759
747,-629,86,-570,-1032,-675
792,-674,59,-730,-1070,-636
840,-743,-50,-867,-985,-653
938,-797,-125,-965,-842,-718
1064,-861,-229,-1051,-679,-778
1106,-976,-361,-1108,-518,-776
1111,-1041,-388,-1108,-522,-724
1161,-1054,-299,-1130,-556,-681
1181,-1115,-290,-1221,-522,-621
1178,-1180,-282,-1317,-518,-565
1238,-1265,-289,-1412,-452,-556
1334,-1328,-369,-1504,-307,-552
1435,-1369,-431,-1592,-258,-503
1554,-1459,-565,-1685,-228,-430
1639,-1532,-678,-1751,-172,-353
1650,-1601,-754,-1815,-141,-263
1615,-1709,-860,-1876,-115,-195
1670,-1811,-1020,-1904,-26,-179
1726,-1901,-1162,-1872,59,-154
1694,-1979,-1219,-1787,61,-105
1742,-2064,-1243,-1726,135,-112
1843,-2128,-1227,-1686,232,-133
1893,-2234,-1248,-1691,296,-73
1881,-2341,-1261,-1687,309,35
1879,-2433,-1315,-1700,296,143
1921,-2593,-1510,-1707,426,189
1902,-2754,-1748,-1619,649,220
1831,-2863,-1855,-1436,778,244
1831,-2976,-1878,-1250,837,253
1802,-3056,-1868,-1063,849,293
1738,-3085,-1785,-887,898,313
1707,-3143,-1714,-763,1030,280
1720,-3196,-1645,-642,1147,234
1669,-3210,-1548,-532,1278,210
1608,-3254,-1523,-460,1354,210
1534,-3305,-1526,-377,1354,248
1396,-3343,-1543,-274,1342,285
1259,-3386,-1590,-148,1360,260
1250,-3399,-1621,9,1413,178
1241,-3335,-1619,193,1540,79
1169,-3255,-1590,354,1728,-9
1121,-3166,-1562,491,1814,-49
1160,-3051,-1552,623,1837,-70
1122,-2905,-1520,756,1878,-50
994,-2743,-1431,874,1852,11
926,-2612,-1302,967,1752,65
804,-2478,-1159,1053,1667,99
663,-2346,-1071,1102,1685,66
580,-2247,-1008,1130,1762,-18
558,-2141,-905,1150,1787,-106
646,-2015,-799,1143,1857,-194
719,-1920,-782,1105,1970,-235
794,-1833,-815,1075,1960,-166
933,-1707,-747,1069,1801,-24
1024,-1565,-582,1030,1618,170
915,-1501,-563,931,1521,358
797,-1441,-594,872,1526,419
752,-1343,-573,843,1603,388
712,-1273,-544,806,1716,374
751,-1174,-454,769,1755,396
815,-1069,-315,706,1685,491
872,-964,-207,613,1580,649
964,-874,-124,495,1419,831
967,-789,-91,373,1265,1032
913,-738,-107,262,1230,1178
852,-706,-182,167,1348,1230
785,-687,-303,104,1482,1259
754,-662,-326,85,1546,1313
752,-592,-273,73,1509,1409
667,-521,-202,33,1447,1546
512,-492,-166,-42,1388,1672
401,-448,-142,-133,1322,1757
331,-399,-81,-232,1247,1837
273,-407,-99,-342,1169,1911
181,-429,-150,-419,1137,1963
92,-479,-154,-468,1155,1955
49,-510,-104,-505,1194,1911
4,-538,-48,-561,1207,1876
-67,-598,-67,-652,1237,1843
-172,-655,-87,-723,1246,1821
-291,-674,-83,-786,1265,1786
-427,-715,-65,-861,1246,1751
-521,-741,-75,-936,1179,1717
-624,-756,-119,-1011,1104,1701
-787,-821,-148,-1084,1016,1674
-940,-898,-171,-1168,989,1592
-1065,-1035,-292,-1256,1010,1470
-1181,-1150,-393,-1287,981,1345
-1314,-1212,-378,-1284,951,1204
-1390,-1208,-331,-1321,894,1062
-1425,-1214,-341,-1423,797,969
-1496,-1279,-426,-1543,655,939
-1561,-1371,-530,-1628,507,918
-1645,-1491,-618,-1659,368,898
-1775,-1584,-647,-1650,189,867
-1907,-1643,-606,-1660,30,772
-2016,-1776,-656,-1721,0,612
-2081,-1934,-764,-1765,8,418
-2016,-1998,-868,-1776,-32,225
-1958,-2078,-925,-1776,-112,105
-1933,-2161,-945,-1776,-298,71
-1893,-2256,-981,-1771,-559,100
-1874,-2386,-1033,-1737,-726,100
-1832,-2442,-1054,-1683,-781,19
-1805,-2526,-1172,-1648,-809,-60
-1819,-2698,-1345,-1579,-880,-132
-1748,-2846,-1455,-1434,-988,-250
-1606,-2923,-1461,-1265,-1080,-380
-1481,-2973,-1438,-1120,-1141,-476
-1411,-3073,-1429,-1001,-1245,-509
-1321,-3170,-1462,-884,-1424,-505
-1281,-3198,-1443,-754,-1584,-487
-1257,-3232,-1361,-653,-1697,-501
-1191,-3314,-1392,-607,-1741,-557
-1155,-3444,-1507,-529,-1744,-636
-1062,-3496,-1595,-392,-1762,-757
-1017,-3528,-1603,-226,-1716,-908
-875,-3558,-1634,-72,-1672,-1094
-597,-3585,-1721,91,-1631,-1249
-449,-3600,-1672,306,-1708,-1274
-268,-3570,-1536,483,-1847,-1280
-32,-3548,-1536,586,-1813,-1295
25,-3554,-1588,703,-1747,-1263
108,-3507,-1581,844,-1742,-1250
254,-3431,-1627,968,-1664,-1254
261,-3378,-1724,1101,-1542,-1214
279,-3310,-1768,1274,-1530,-1178
353,-3174,-1689,1463,-1541,-1142
398,-3020,-1586,1625,-1494,-1090
391,-2864,-1510,1756,-1421,-1033
392,-2687,-1384,1860,-1403,-957
361,-2491,-1198,1912,-1456,-822
288,-2336,-1033,1897,-1563,-662
176,-2169,-903,1839,-1583,-545
55,-2029,-821,1736,-1591,-440
-60,-1941,-760,1623,-1696,-356
-128,-1855,-709,1524,-1682,-368
-192,-1785,-701,1432,-1506,-453
-227,-1722,-812,1364,-1252,-577
-153,-1678,-944,1357,-1068,-702
-24,-1594,-955,1419,-983,-746
-3,-1499,-870,1474,-947,-713
-73,-1415,-731,1503,-1032,-650
-69,-1280,-531,1490,-1222,-610
-67,-1143,-358,1396,-1305,-586
-151,-1032,-249,1263,-1232,-591
-200,-911,-160,1099,-1154,-651
-216,-832,-147,917,-1152,-696
-217,-766,-163,755,-1166,-732
-236,-704,-216,630,-1150,-776
-273,-688,-352,558,-1121,-825
-259,-664,-433,560,-1158,-882
-201,-578,-268,579,-1232,-966
-136,-527,-94,496,-1236,-1043
19,-512,-20,348,-1161,-1151
203,-534,-51,190,-994,-1283
353,-566,-145,60,-786,-1378
516,-589,-264,-30,-668,-1404
660,-596,-324,-80,-708,-1315
725,-605,-285,-102,-827,-1142
706,-578,-100,-155,-971,-951
648,-578,-28,-301,-1048,-817
605,-610,-62,-460,-1063,-752
555,-637,-64,-573,-1061,-729
519,-660,-68,-669,-1042,-760
622,-687,-84,-770,-924,-877
756,-713,-177,-873,-714,-1004
823,-747,-234,-948,-518,-1071
927,-731,-222,-1015,-400,-1100
1054,-722,-248,-1107,-338,-1070
1097,-796,-262,-1202,-358,-954
1109,-901,-216,-1268,-487,-811
1199,-979,-147,-1345,-594,-710
1270,-1030,-116,-1456,-563,-648
1279,-1072,-158,-1601,-493,-592
1308,-1121,-374,-1774,-474,-487
1365,-1263,-709,-1890,-563,-322
1395,-1428,-854,-1867,-632,-191
1292,-1464,-777,-1812,-653,-157
1330,-1580,-854,-1857,-484,-245
1419,-1706,-941,-1867,-243,-343
1538,-1739,-1036,-1856,-25,-408
1649,-1837,-1126,-1868,150,-393
1696,-1930,-1110,-1869,118,-263
1781,-1980,-1064,-1915,31,-108
1800,-2097,-1188,-1994,7,86
1782,-2171,-1355,-2033,-29,266
1672,-2348,-1545,-2023,23,366
1565,-2529,-1763,-1911,210,356
1507,-2630,-1821,-1736,297,329
1422,-2732,-1859,-1586,398,291
1399,-2836,-1914,-1449,547,203
1497,-2913,-1889,-1316,668,94
1558,-3021,-1930,-1216,834,16
1691,-3103,-1943,-1105,882,-17
1883,-3142,-1957,-1007,924,-25
1953,-3216,-1998,-898,1027,26
1989,-3286,-2018,-746,1040,112
1995,-3297,-2039,-577,1045,204
1858,-3312,-2030,-401,1069,291
1737,-3283,-1975,-219,1144,289
1629,-3232,-1959,-62,1321,219
1515,-3172,-1955,100,1459,152
1434,-3058,-1841,264,1489,98
1423,-2921,-1722,380,1559,40
1395,-2776,-1654,454,1685,2
1348,-2667,-1648,514,1781,-1
1372,-2547,-1603,596,1762,39
1359,-2402,-1478,683,1698,126
1244,-2314,-1361,724,1679,206
1062,-2246,-1302,746,1741,210
971,-2198,-1310,762,1914,111
958,-2160,-1348,790,2069,14
959,-2120,-1358,845,2162,-28
1005,-2053,-1313,900,2170,-15
1020,-1965,-1243,940,2081,89
989,-1879,-1154,954,1915,249
922,-1811,-1117,942,1690,419
784,-1746,-1119,946,1529,523
724,-1626,-1046,974,1414,531
670,-1524,-941,984,1389,520
603,-1453,-836,967,1423,518
581,-1357,-723,939,1411,541
530,-1279,-577,881,1379,614
469,-1233,-484,781,1350,677
489,-1195,-532,666,1231,743
539,-1165,-564,613,1061,845
589,-1113,-495,600,876,972
555,-1055,-447,572,746,1118
443,-1035,-427,542,718,1186
365,-1009,-410,505,920,1102
358,-980,-409,474,1160,996
427,-926,-391,465,1203,986
513,-827,-301,450,1109,1091
562,-746,-213,394,961,1293
545,-648,-162,318,751,1549
430,-580,-104,261,547,1799
270,-493,-6,210,379,1988
186,-463,77,120,319,2062
103,-476,78,14,478,2013
-7,-485,27,-79,702,1908
-38,-517,-69,-149,875,1796
-53,-555,-132,-175,1037,1713
-42,-584,-139,-188,1111,1702
-31,-569,-30,-198,1016,1800
-96,-545,65,-250,833,1989
-237,-566,108,-334,584,2190
-423,-599,111,-420,395,2289
-583,-658,75,-513,436,2233
-691,-729,-24,-590,562,2101
-774,-810,-116,-632,643,1995
-900,-868,-158,-652,649,1949
-1065,-946,-150,-688,592,1896
-1209,-1007,-130,-739,519,1797
-1312,-1073,-114,-811,443,1669
-1419,-1112,-136,-890,416,1521
-1507,-1184,-196,-975,403,1379
-1554,-1278,-210,-1028,323,1255
-1570,-1328,-155,-1074,240,1138
-1548,-1388,-202,-1173,146,1073
-1531,-1503,-290,-1271,43,1054
-1574,-1625,-340,-1328,30,1036
-1693,-1726,-420,-1368,44,1016
-1863,-1838,-434,-1384,-80,983
-1960,-1953,-457,-1399,-215,882
-1987,-2039,-522,-1421,-208,751
-2069,-2127,-625,-1427,-85,634
-2127,-2236,-704,-1397,-143,523
-2057,-2280,-712,-1344,-352,429
-1987,-2320,-696,-1327,-544,373
-1981,-2442,-713,-1348,-662,321
-1951,-2522,-759,-1365,-684,198
-1877,-2606,-911,-1386,-705,77
-1816,-2760,-1050,-1354,-734,-28
-1693,-2881,-1128,-1255,-765,-156
-1613,-3019,-1186,-1134,-793,-243
-1531,-3112,-1258,-1000,-832,-314
-1446,-3159,-1264,-849,-966,-339
-1409,-3232,-1191,-702,-1174,-317
-1296,-3277,-1108,-591,-1352,-333
-1264,-3366,-1079,-518,-1416,-349
-1295,-3446,-1106,-451,-1415,-394
-1198,-3505,-1157,-380,-1464,-503
-1030,-3606,-1216,-295,-1449,-635
-871,-3695,-1288,-184,-1319,-795
-766,-3764,-1390,-40,-1219,-916
-591,-3836,-1472,151,-1206,-1006
-356,-3807,-1468,361,-1188,-1060
-336,-3764,-1438,541,-1124,-1025
-357,-3673,-1367,704,-1149,-970
-307,-3556,-1249,839,-1182,-942
-339,-3434,-1212,904,-1132,-926
-381,-3298,-1258,937,-1091,-903
-406,-3164,-1288,997,-1137,-856
-441,-3038,-1307,1078,-1171,-806
-485,-2860,-1295,1176,-1197,-779
-535,-2647,-1208,1265,-1241,-763
-494,-2469,-1052,1313,-1287,-759
-428,-2304,-910,1313,-1292,-737
-402,-2149,-810,1266,-1326,-666
-383,-2035,-715,1188,-1390,-569
-429,-1950,-650,1092,-1397,-479
-574,-1874,-678,997,-1306,-447
-695,-1818,-800,912,-1256,-473
-752,-1811,-880,884,-1247,-565
-743,-1768,-907,925,-1196,-714
-651,-1693,-885,988,-1142,-877
-558,-1577,-698,1037,-1103,-1018
-461,-1465,-479,994,-1044,-1141
-341,-1358,-362,860,-1004,-1228
-256,-1301,-353,699,-1028,-1250
-185,-1229,-410,580,-1084,-1242
-160,-1162,-522,503,-1145,-1205
-218,-1110,-541,494,-1241,-1167
-197,-1060,-483,503,-1369,-1169
-151,-993,-448,508,-1440,-1177
-196,-894,-386,506,-1436,-1218
-192,-823,-346,481,-1360,-1321
-143,-746,-267,453,-1153,-1471
-46,-692,-187,388,-898,-1650
116,-663,-192,283,-696,-1771
256,-670,-260,184,-614,-1781
352,-641,-280,126,-705,-1704
375,-634,-236,88,-816,-1605
435,-602,-172,31,-870,-1546
509,-574,-116,-56,-846,-1523
555,-582,-108,-165,-764,-1514
604,-581,-190,-261,-688,-1503
661,-581,-232,-320,-701,-1439
669,-571,-170,-368,-734,-1349
673,-538,-27,-451,-713,-1287
670,-556,6,-596,-621,-1272
743,-602,-76,-730,-598,-1276
907,-632,-144,-818,-649,-1234
982,-646,-180,-888,-539,-1158
968,-727,-236,-965,-368,-1094
954,-802,-259,-1007,-311,-1040
1006,-829,-262,-1042,-311,-993
1060,-886,-337,-1103,-292,-933
1023,-939,-352,-1140,-301,-857
1052,-959,-340,-1185,-314,-809
1138,-1011,-366,-1259,-255,-759
1120,-1066,-424,-1331,-217,-668
1114,-1117,-479,-1409,-240,-598
1189,-1212,-598,-1497,-236,-573
1261,-1311,-741,-1546,-172,-551
1281,-1372,-774,-1551,-145,-501
1350,-1392,-771,-1591,-147,-464
1422,-1453,-845,-1666,-108,-425
1518,-1520,-927,-1725,-72,-370
1640,-1575,-1002,-1778,-33,-311
1685,-1672,-1166,-1830,0,-210
1711,-1752,-1280,-1819,-26,-94
1792,-1827,-1366,-1782,-22,-23
1831,-1936,-1413,-1722,80,29
1838,-1972,-1383,-1656,190,47
1850,-2069,-1393,-1637,346,43
1917,-2132,-1458,-1622,487,57
1940,-2188,-1517,-1598,548,134
1941,-2288,-1584,-1572,591,221
1933,-2347,-1604,-1534,610,300
1921,-2430,-1682,-1515,626,373
1930,-2558,-1869,-1466,739,408
1868,-2704,-1965,-1320,818,456
1833,-2766,-1876,-1138,796,495
1854,-2844,-1842,-1032,871,478
1813,-2940,-1929,-938,1020,455
1769,-2985,-1963,-797,1128,418
1731,-2977,-1957,-663,1227,378
1702,-2969,-1970,-548,1276,367
1668,-2918,-1933,-421,1320,374
1623,-2878,-1937,-301,1377,398
1548,-2826,-1891,-154,1381,446
1476,-2770,-1760,-10,1387,474
1395,-2718,-1655,98,1415,484
1281,-2695,-1605,180,1445,470
1196,-2673,-1591,278,1538,397
1218,-2624,-1510,375,1621,297
1232,-2573,-1481,426,1760,221
1193,-2567,-1520,457,1839,219
1185,-2558,-1505,527,1738,285
1129,-2496,-1450,623,1645,372
1010,-2437,-1416,690,1604,436
932,-2387,-1392,746,1558,468
827,-2341,-1390,810,1566,459
763,-2289,-1383,898,1615,402
792,-2212,-1314,994,1674,322
830,-2124,-1214,1061,1766,261
851,-2022,-1126,1099,1836,247
884,-1929,-1008,1120,1809,299
889,-1824,-896,1116,1733,396
833,-1717,-782,1085,1654,505
772,-1624,-667,1028,1543,602
740,-1546,-597,956,1410,689
730,-1514,-613,892,1318,753
774,-1485,-625,877,1272,794
788,-1428,-576,887,1244,822
718,-1394,-559,895,1289,815
694,-1350,-535,909,1412,740
724,-1292,-470,906,1505,663
745,-1244,-420,881,1563,630
800,-1147,-333,841,1614,631
839,-1083,-217,765,1572,710
858,-1027,-113,652,1408,863
915,-959,-65,509,1215,1051
954,-903,-63,373,962,1295
883,-864,-109,277,761,1540
695,-849,-206,235,650,1696
466,-842,-251,244,689,1703
380,-826,-202,267,845,1577
379,-792,-148,250,1017,1442
355,-776,-88,220,1075,1396
371,-734,-36,172,1024,1404
361,-715,-54,111,909,1476
357,-681,8,79,750,1571
471,-614,166,12,586,1673
428,-580,215,-129,535,1802
181,-622,110,-275,620,1860
54,-669,-34,-359,757,1782
75,-689,-133,-383,859,1694
58,-713,-186,-388,938,1676
-34,-705,-154,-399,912,1741
-182,-708,-104,-442,786,1865
-291,-697,-18,-509,625,1975
-433,-681,25,-617,519,2038
-690,-736,-20,-740,489,2049
-898,-789,-76,-829,444,1999
-1068,-862,-169,-902,416,1915
-1255,-937,-235,-949,425,1771
-1369,-987,-282,-996,433,1575
-1416,-1076,-329,-1043,469,1394
-1404,-1183,-307,-1082,443,1254
-1408,-1293,-277,-1127,403,1148
-1457,-1339,-272,-1178,385,1057
-1501,-1400,-254,-1243,321,967
-1528,-1489,-332,-1342,332,864
-1577,-1599,-454,-1415,340,803
-1634,-1652,-491,-1445,210,791
-1757,-1699,-603,-1491,87,787
-1944,-1793,-733,-1512,3,755
-2112,-1943,-708,-1479,-154,658
-2134,-1997,-647,-1462,-267,482
-2092,-2078,-719,-1482,-262,302
-2009,-2118,-812,-1480,-384,195
-1862,-2176,-814,-1477,-578,137
-1770,-2294,-832,-1480,-689,101
-1735,-2375,-891,-1473,-767,81
-1704,-2475,-963,-1446,-819,32
-1607,-2558,-1052,-1398,-859,-25
-1533,-2643,-1161,-1324,-938,-24
-1558,-2780,-1207,-1225,-1050,-15
-1514,-2882,-1179,-1122,-1189,-60
-1464,-2940,-1112,-1028,-1262,-135
-1400,-2973,-1126,-964,-1249,-218
-1324,-3010,-1189,-894,-1286,-260
-1376,-3123,-1242,-797,-1429,-255
-1290,-3193,-1234,-681,-1513,-359
-1162,-3239,-1198,-580,-1506,-490
-1060,-3348,-1213,-499,-1510,-583
-904,-3425,-1292,-411,-1493,-680
-838,-3515,-1343,-287,-1474,-728
-762,-3595,-1286,-135,-1489,-788
-613,-3651,-1304,-10,-1448,-873
-501,-3732,-1307,111,-1367,-947
-390,-3768,-1301,239,-1311,-1003
-271,-3741,-1322,364,-1298,-1009
-239,-3688,-1427,499,-1274,-978
-248,-3607,-1541,664,-1272,-944
-226,-3467,-1544,855,-1376,-896
-251,-3317,-1477,1030,-1405,-856
-349,-3126,-1381,1158,-1371,-834
-441,-2931,-1250,1234,-1359,-847
-446,-2768,-1139,1257,-1304,-895
-442,-2610,-1066,1251,-1262,-902
-494,-2478,-1037,1242,-1308,-845
-496,-2363,-1022,1239,-1361,-820
-434,-2246,-1009,1239,-1372,-837
-417,-2159,-995,1261,-1300,-862
-418,-2052,-935,1299,-1249,-887
-359,-1944,-807,1309,-1260,-918
-288,-1856,-774,1270,-1154,-971
-331,-1786,-794,1245,-986,-1003
-380,-1680,-724,1247,-910,-1035
-323,-1577,-642,1214,-847,-1084
-264,-1470,-582,1167,-810,-1098
-242,-1385,-547,1097,-896,-1041
-246,-1355,-595,1051,-1005,-975
-206,-1270,-515,1060,-1115,-937
-212,-1182,-411,1033,-1156,-919
-264,-1107,-308,978,-1089,-975
-270,-1016,-217,893,-943,-1114
-228,-915,-184,773,-787,-1258
-155,-870,-256,654,-678,-1356
-120,-832,-315,590,-591,-1404
-63,-777,-315,558,-585,-1436
3,-708,-283,532,-602,-1450
-23,-654,-213,485,-648,-1428
55,-625,-95,408,-731,-1434
218,-585,6,296,-716,-1476
327,-592,-51,155,-600,-1503
492,-631,-156,60,-522,-1522
665,-625,-125,26,-503,-1485
728,-602,-30,-13,-482,-1392
731,-602,8,-93,-471,-1282
675,-599,0,-171,-469,-1172
607,-587,45,-242,-548,-1074
611,-564,88,-342,-594,-1022
564,-561,84,-461,-593,-987
520,-592,39,-581,-588,-982
595,-610,30,-684,-589,-1004
704,-644,17,-792,-568,-1021
779,-727,-64,-895,-474,-1057
881,-800,-116,-951,-386,-1103
1078,-817,-89,-1000,-354,-1127
1217,-866,-139,-1099,-250,-1097
1307,-981,-295,-1178,-163,-1027
1436,-1002,-287,-1192,-220,-925
1455,-996,-179,-1250,-325,-751
1421,-1000,-180,-1406,-407,-588
1411,-1066,-348,-1582,-459,-446
1363,-1174,-471,-1661,-510,-314
1350,-1167,-432,-1698,-532,-265
1366,-1196,-539,-1806,-395,-289
1446,-1282,-753,-1877,-193,-331
1566,-1347,-862,-1874,-48,-352
1680,-1444,-963,-1858,50,-305
1832,-1459,-908,-1830,56,-214
1975,-1516,-938,-1908,33,-43
1956,-1633,-1065,-1989,-42,226
1871,-1702,-1201,-2032,-151,475
1693,-1794,-1346,-2054,-107,640
1482,-1907,-1512,-2050,28,703
1373,-2052,-1710,-2009,92,707
1352,-2124,-1816,-1895,138,673
1364,-2215,-1823,-1779,264,614
1399,-2276,-1820,-1675,408,559
1560,-2315,-1798,-1601,478,525
1605,-2464,-1782,-1526,497,593
1625,-2530,-1632,-1413,449,672
1762,-2582,-1613,-1395,569,683
1758,-2711,-1814,-1389,883,692
1708,-2782,-1969,-1297,1019,727
1800,-2818,-1981,-1173,994,763
1814,-2873,-1981,-1053,1032,827
1729,-2918,-2038,-915,1073,903
1688,-2987,-2096,-743,1092,938
1526,-3018,-1974,-527,1123,963
1369,-3008,-1805,-371,1168,928
1264,-3068,-1786,-296,1280,860
1162,-3139,-1808,-205,1337,804
1113,-3175,-1852,-93,1397,721
1067,-3196,-1873,39,1499,629
979,-3178,-1887,180,1634,532
927,-3163,-1941,318,1753,434
890,-3120,-1945,482,1740,384
785,-3054,-1931,645,1710,363
693,-2994,-1916,798,1682,315
666,-2892,-1859,955,1684,240
670,-2762,-1763,1087,1664,184
696,-2622,-1637,1196,1630,137
736,-2481,-1520,1278,1749,45
725,-2350,-1442,1325,1957,-42
781,-2235,-1358,1354,2024,-71
903,-2089,-1244,1376,1966,-5
943,-1932,-1127,1370,1847,169
932,-1792,-1096,1337,1707,373
904,-1638,-1061,1310,1538,581
769,-1522,-982,1299,1361,770
591,-1433,-902,1290,1282,863
512,-1350,-790,1283,1286,841
541,-1269,-698,1246,1388,779
542,-1231,-638,1186,1403,805
640,-1147,-549,1124,1309,880
655,-1070,-499,1028,1221,1020
638,-1003,-432,934,1090,1178
708,-903,-327,829,905,1343
696,-849,-271,701,664,1584
528,-799,-265,595,436,1793
304,-781,-257,519,358,1848
235,-749,-254,445,551,1694
220,-748,-370,384,897,1519
172,-732,-459,396,1081,1453
181,-639,-339,440,1082,1471
174,-551,-168,406,992,1580
143,-486,-71,295,796,1773
112,-405,6,165,451,2025
-58,-348,27,30,139,2256
-299,-354,-30,-89,77,2326
-379,-382,-120,-169,178,2234
-403,-413,-203,-213,348,2114
-473,-444,-233,-237,522,2038
-532,-446,-186,-266,562,2009
-610,-465,-129,-328,533,2036
-735,-520,-150,-405,412,2101
-816,-564,-101,-453,277,2123
-911,-600,5,-505,149,2115
-1074,-641,23,-590,90,2062
-1228,-725,-59,-674,102,1949
-1268,-770,-48,-735,130,1786
-1322,-833,-88,-845,282,1603
-1451,-929,-207,-957,449,1443
-1506,-986,-295,-1026,373,1335
-1555,-1024,-352,-1070,231,1263
-1677,-1087,-320,-1112,109,1189
-1776,-1171,-301,-1183,4,1087
-1823,-1266,-363,-1268,-58,967
-1878,-1365,-472,-1336,-59,851
-1944,-1468,-566,-1371,-67,767
-1982,-1514,-556,-1400,-141,714
-2087,-1544,-565,-1475,-260,710
-2277,-1639,-600,-1549,-400,718
-2402,-1727,-577,-1584,-556,635
-2437,-1821,-614,-1625,-563,461
-2449,-1943,-673,-1642,-535,266
-2426,-2038,-733,-1657,-562,90
-2324,-2160,-857,-1682,-652,-37
-2217,-2281,-1016,-1679,-764,-114
-2231,-2429,-1129,-1621,-915,-147
-2122,-2445,-1026,-1530,-1116,-226
-2060,-2503,-996,-1506,-1203,-289
-2073,-2637,-1077,-1497,-1263,-355
-1957,-2708,-1143,-1455,-1338,-483
-1867,-2798,-1302,-1407,-1333,-580
-1864,-2898,-1433,-1295,-1388,-635
-1804,-2959,-1442,-1161,-1562,-687
-1702,-3006,-1486,-1069,-1659,-767
-1690,-3091,-1597,-975,-1639,-884
-1612,-3167,-1714,-837,-1612,-1051
-1373,-3234,-1777,-669,-1647,-1219
-1141,-3265,-1811,-501,-1633,-1330
-961,-3305,-1842,-341,-1629,-1376
-848,-3294,-1755,-159,-1725,-1362
-837,-3264,-1630,-6,-1812,-1335
-758,-3251,-1522,95,-1827,-1376
-628,-3268,-1547,148,-1743,-1464
-546,-3305,-1638,224,-1660,-1517
-427,-3262,-1650,333,-1631,-1550
-391,-3195,-1763,435,-1544,-1568
-410,-3160,-1897,583,-1433,-1601
-331,-3080,-1862,804,-1445,-1674
-212,-2927,-1733,992,-1390,-1748
-189,-2808,-1622,1125,-1293,-1762
-153,-2674,-1500,1231,-1306,-1731
13,-2574,-1421,1278,-1358,-1684
107,-2501,-1407,1296,-1305,-1607
95,-2426,-1418,1332,-1238,-1502
98,-2315,-1394,1386,-1264,-1383
-18,-2198,-1243,1441,-1299,-1272
-181,-2102,-1169,1456,-1224,-1238
-246,-1991,-1178,1475,-1144,-1259
-260,-1816,-1058,1516,-1139,-1277
-294,-1650,-871,1497,-1174,-1250
-319,-1517,-804,1420,-1247,-1188
-330,-1397,-792,1347,-1375,-1101
-350,-1275,-743,1301,-1560,-1023
-375,-1191,-634,1262,-1637,-1031
-511,-1117,-496,1227,-1438,-1185
-536,-1024,-411,1156,-1105,-1466
-327,-938,-416,1073,-878,-1722
-134,-911,-415,1014,-733,-1834
-5,-873,-359,988,-670,-1840
116,-787,-278,949,-676,-1786
176,-747,-266,873,-742,-1655
190,-702,-175,812,-861,-1508
221,-639,-65,719,-937,-1413
220,-638,-10,586,-938,-1333
267,-644,18,454,-978,-1263
271,-620,5,322,-1012,-1202
196,-628,-15,200,-957,-1214
223,-650,-27,99,-758,-1361
316,-635,-78,10,-512,-1532
424,-654,-158,-68,-347,-1634
632,-663,-260,-122,-276,-1648
778,-650,-259,-148,-386,-1497
807,-616,-133,-188,-608,-1241
791,-585,22,-280,-776,-1010
776,-585,95,-426,-867,-861
795,-615,62,-591,-890,-786
785,-671,11,-722,-863,-738
785,-691,-4,-826,-837,-726
818,-708,-65,-943,-743,-763
844,-784,-160,-1036,-611,-808
947,-815,-199,-1083,-489,-866
1002,-858,-210,-1133,-425,-854
1026,-926,-208,-1185,-432,-800
1158,-946,-155,-1269,-521,-740
1278,-1000,-196,-1413,-570,-634
1332,-1025,-284,-1543,-615,-472
1310,-1035,-365,-1663,-726,-285
1298,-1061,-449,-1781,-829,-141
1283,-1141,-537,-1894,-804,-80
1242,-1193,-640,-1985,-614,-99
1275,-1233,-825,-2083,-420,-159
1372,-1366,-1064,-2130,-269,-180
1505,-1454,-1189,-2082,-174,-170
1573,-1534,-1266,-2025,-114,-110
1627,-1617,-1344,-1981,-138,4
1680,-1652,-1332,-1942,-227,139
1624,-1702,-1294,-1942,-254,255
1540,-1701,-1302,-1975,-165,284
1566,-1778,-1425,-2040,63,210
1596,-1909,-1625,-2060,357,109
1651,-1996,-1787,-1992,561,37
1840,-2089,-1951,-1902,691,14
1978,-2196,-2112,-1800,696,114
2028,-2275,-2182,-1663,583,317
2044,-2330,-2147,-1519,510,507
1939,-2373,-2048,-1408,505,631
1821,-2446,-2001,-1343,615,652
1794,-2488,-1981,-1296,787,588
1762,-2559,-2038,-1265,971,534
1654,-2645,-2081,-1197,1132,503
1648,-2715,-2086,-1121,1225,446
1651,-2829,-2198,-1047,1279,430
1604,-2958,-2278,-908,1317,445
1534,-3051,-2269,-723,1310,458
1459,-3108,-2217,-546,1291,463
1351,-3133,-2190,-395,1309,454
1236,-3136,-2175,-256,1360,426
1120,-3113,-2171,-126,1457,362
951,-3087,-2214,1,1579,264
879,-3016,-2166,165,1674,126
856,-2900,-2090,321,1834,-30
855,-2802,-2067,459,1968,-162
887,-2704,-2046,608,2029,-241
953,-2566,-1983,769,1976,-255
1040,-2400,-1816,906,1841,-219
1146,-2256,-1691,1002,1744,-151
1219,-2079,-1558,1074,1682,-40
1145,-1977,-1456,1094,1697,89
1017,-1889,-1410,1108,1748,174
945,-1764,-1330,1125,1739,240
931,-1664,-1253,1120,1712,304
939,-1565,-1182,1101,1738,361
977,-1471,-1113,1067,1789,439
982,-1377,-1047,1024,1791,595
882,-1292,-1001,989,1717,803
875,-1221,-945,957,1556,993
