ax,ay,az,gx,gy,gz
717,-3111,-1531,500,1466,515
586,-3014,-1440,678,1458,473
473,-2869,-1359,804,1578,364
356,-2738,-1325,883,1733,266
369,-2589,-1297,958,1784,195
391,-2426,-1218,1032,1731,211
401,-2246,-1060,1098,1586,299
429,-2067,-910,1106,1389,426
529,-1927,-820,1079,1182,560
544,-1813,-775,1069,1122,662
477,-1731,-757,1074,1208,699
443,-1639,-757,1098,1292,666
360,-1547,-682,1142,1419,598
300,-1457,-584,1153,1568,497
319,-1392,-590,1134,1641,428
407,-1335,-597,1147,1598,432
521,-1260,-478,1187,1437,520
518,-1173,-277,1180,1243,671
514,-1100,-116,1090,1083,809
531,-1042,-50,951,909,942
619,-996,-61,824,695,1093
595,-881,-49,735,444,1308
410,-821,-83,633,349,1532
149,-858,-194,563,513,1508
-38,-900,-264,547,828,1333
-18,-900,-276,504,1036,1227
68,-813,-278,471,1056,1251
172,-685,-180,478,954,1405
139,-650,-53,486,899,1590
73,-594,63,466,774,1724
39,-525,48,388,618,1811
-113,-510,17,344,575,1863
-294,-455,81,291,632,1820
-404,-472,109,138,729,1738
-456,-580,-46,-56,864,1680
-459,-662,-233,-121,819,1699
-512,-716,-297,-55,540,1804
-701,-764,-117,54,318,1870
-810,-813,95,56,277,1772
-763,-859,117,-48,511,1552
-660,-914,84,-171,753,1393
-658,-951,64,-261,813,1331
-715,-978,108,-326,837,1280
-746,-972,179,-405,898,1230
-841,-959,228,-541,845,1247
-934,-1042,117,-706,687,1320
-1114,-1113,23,-779,543,1390
-1329,-1149,1,-810,387,1408
-1466,-1257,-23,-885,307,1359
-1566,-1357,-34,-967,359,1215
-1607,-1446,-81,-1079,506,1031
-1682,-1552,-214,-1181,627,904
-1758,-1629,-315,-1197,636,844
-1859,-1714,-288,-1169,525,832
-1939,-1825,-250,-1152,313,838
-1926,-1919,-229,-1146,84,872
-1962,-2016,-180,-1131,-65,907
-2022,-2093,-238,-1130,-84,886
-2113,-2241,-391,-1098,-8,879
-2288,-2421,-534,-997,10,882
-2310,-2562,-546,-887,-165,809
-2239,-2664,-428,-792,-361,677
-2184,-2713,-344,-749,-444,548
-2077,-2759,-392,-771,-569,477
-1983,-2865,-512,-749,-796,500
-1926,-2923,-478,-656,-1010,554
-1937,-2983,-372,-586,-1150,585
-2080,-3036,-309,-534,-1147,553
-2166,-3055,-294,-484,-1044,425
-2178,-3118,-320,-441,-1001,253
-2181,-3195,-331,-393,-998,89
-2083,-3260,-347,-384,-1019,-81
-1884,-3368,-479,-399,-971,-257
-1721,-3493,-683,-355,-859,-361
-1618,-3574,-762,-224,-832,-405
-1482,-3604,-672,-82,-890,-463
-1368,-3651,-644,-29,-957,-517
-1338,-3669,-751,-18,-962,-572
-1357,-3660,-887,32,-963,-640
-1357,-3631,-1073,140,-1063,-708
-1324,-3520,-1199,327,-1154,-786
-1294,-3354,-1155,513,-1289,-843
-1262,-3221,-1045,621,-1478,-901
-1177,-3032,-985,674,-1586,-975
-1136,-2859,-941,706,-1568,-1048
-1113,-2694,-887,733,-1547,-1104
-1029,-2534,-803,756,-1619,-1127
-966,-2378,-708,761,-1661,-1125
-920,-2242,-642,744,-1641,-1100
-852,-2168,-661,710,-1596,-1087
-817,-2105,-777,683,-1476,-1087
-729,-2047,-940,704,-1322,-1131
-622,-1958,-1014,813,-1255,-1141
-525,-1819,-900,945,-1323,-1074
-449,-1686,-674,1007,-1442,-1003
-540,-1584,-528,956,-1455,-932
-669,-1524,-482,876,-1403,-920
-620,-1442,-471,832,-1497,-951
-542,-1368,-428,802,-1587,-959
-463,-1273,-338,768,-1603,-962
-455,-1223,-263,696,-1564,-983
-438,-1168,-238,627,-1485,-1027
-291,-1123,-219,578,-1503,-1058
-129,-1090,-217,545,-1443,-1066
-59,-1023,-233,517,-1280,-1057
-38,-976,-242,500,-1175,-1049
-29,-886,-222,505,-1120,-1026
21,-796,-149,501,-1102,-1000
121,-710,-33,452,-1115,-971
159,-666,75,355,-1049,-946
131,-660,121,232,-852,-972
161,-662,73,86,-753,-1004
279,-706,-42,-14,-739,-1001
349,-698,-127,-44,-728,-951
377,-645,-72,-56,-825,-838
372,-555,52,-124,-963,-721
383,-508,22,-278,-1089,-626
383,-488,-56,-410,-1210,-534
358,-481,-50,-512,-1276,-464
373,-533,-39,-613,-1311,-415
378,-586,0,-703,-1231,-396
369,-639,45,-804,-1085,-377
345,-720,0,-919,-910,-398
362,-779,-62,-1018,-726,-460
419,-809,-155,-1103,-647,-444
487,-852,-212,-1172,-746,-342
518,-914,-235,-1246,-861,-240
499,-992,-283,-1325,-851,-174
509,-1100,-355,-1388,-801,-163
591,-1197,-451,-1438,-735,-199
671,-1305,-544,-1452,-528,-276
684,-1385,-597,-1460,-277,-351
678,-1485,-698,-1455,-63,-405
740,-1599,-710,-1409,23,-418
826,-1614,-651,-1389,17,-393
872,-1604,-657,-1452,-28,-291
899,-1677,-696,-1547,-144,-129
950,-1702,-853,-1653,-181,0
990,-1772,-1073,-1732,-115,120
983,-1887,-1200,-1728,-97,227
976,-1990,-1231,-1676,-82,297
949,-2078,-1208,-1615,19,314
898,-2173,-1132,-1580,168,283
884,-2304,-1168,-1589,316,247
959,-2356,-1175,-1583,413,230
1051,-2396,-1275,-1628,514,254
1062,-2482,-1482,-1665,621,335
1014,-2520,-1649,-1643,642,431
1069,-2635,-1743,-1574,579,496
1095,-2747,-1760,-1434,632,538
1072,-2780,-1635,-1289,696,581
1048,-2846,-1588,-1236,797,611
983,-2930,-1710,-1203,1015,637
954,-3009,-1793,-1112,1079,657
869,-3063,-1790,-997,1086,705
762,-3133,-1830,-904,1176,726
679,-3181,-1853,-786,1227,724
556,-3199,-1818,-650,1225,715
366,-3227,-1774,-534,1300,646
245,-3240,-1760,-461,1389,516
217,-3280,-1761,-398,1411,398
191,-3295,-1688,-313,1365,291
201,-3341,-1624,-255,1345,176
214,-3402,-1625,-188,1388,79
247,-3441,-1671,-99,1415,4
243,-3463,-1700,31,1403,-36
264,-3467,-1664,183,1402,-58
223,-3441,-1648,322,1480,-45
28,-3417,-1675,454,1523,-32
-120,-3347,-1673,586,1513,-106
-162,-3235,-1653,710,1510,-223
-169,-3116,-1583,826,1516,-329
-119,-2997,-1548,931,1568,-419
-80,-2865,-1513,1055,1548,-425
-107,-2692,-1333,1193,1433,-381
-94,-2544,-1145,1257,1299,-376
-22,-2412,-998,1258,1268,-409
88,-2265,-912,1215,1276,-402
85,-2152,-897,1154,1265,-346
13,-2063,-918,1109,1289,-309
69,-1989,-956,1092,1311,-316
170,-1885,-971,1118,1328,-296
195,-1795,-994,1162,1308,-219
250,-1705,-997,1246,1152,-105
296,-1543,-803,1370,963,14
303,-1371,-564,1405,867,104
299,-1253,-411,1334,879,140
355,-1148,-330,1212,988,144
404,-1085,-270,1101,1105,202
433,-1041,-204,1019,1159,302
463,-967,-98,935,1182,404
511,-889,-78,817,1195,511
470,-855,-146,733,1136,666
363,-814,-149,697,1032,790
305,-760,-205,646,1043,845
326,-711,-285,614,1048,916
342,-651,-221,656,897,1037
290,-565,-18,677,736,1168
171,-489,111,585,743,1222
-52,-486,161,446,900,1170
-145,-482,190,287,1098,1022
-61,-487,178,136,1203,901
17,-492,166,19,1161,897
125,-517,162,-78,1016,983
230,-536,126,-147,849,1149
266,-536,114,-201,687,1355
63,-570,114,-275,665,1474
-181,-632,85,-395,878,1414
-237,-706,-62,-539,1124,1272
-226,-775,-243,-608,1122,1240
-202,-817,-261,-592,997,1294
-245,-832,-217,-586,904,1396
-379,-863,-189,-616,772,1529
-520,-901,-145,-648,623,1638
-677,-912,-89,-704,504,1706
-941,-941,-84,-793,526,1718
-1244,-1039,-146,-898,611,1637
-1490,-1160,-224,-962,624,1482
-1582,-1232,-248,-1011,560,1290
-1555,-1280,-242,-1080,458,1120
-1521,-1373,-253,-1164,360,1009
-1552,-1474,-306,-1231,291,935
-1618,-1567,-372,-1279,184,876
-1679,-1658,-395,-1303,67,795
-1656,-1729,-382,-1349,55,694
-1689,-1865,-439,-1424,79,647
-1721,-1989,-579,-1487,45,598
-1681,-2095,-667,-1530,4,562
-1720,-2312,-794,-1549,-38,573
-1767,-2461,-966,-1489,-99,587
-1839,-2522,-977,-1353,-246,601
-1925,-2571,-850,-1216,-433,593
-1964,-2613,-757,-1155,-614,569
-2037,-2701,-768,-1129,-697,524
-2118,-2794,-818,-1094,-699,417
-2094,-2849,-852,-1044,-796,281
-2049,-2885,-832,-990,-933,166
-2022,-2977,-866,-950,-972,58
-1935,-3048,-955,-887,-1004,-67
-1820,-3111,-1016,-801,-1054,-164
-1767,-3193,-963,-702,-1124,-246
-1695,-3249,-978,-643,-1147,-363
-1583,-3340,-1070,-582,-1140,-487
-1418,-3390,-1155,-490,-1184,-594
-1330,-3420,-1202,-373,-1237,-660
-1333,-3477,-1206,-241,-1321,-722
-1155,-3497,-1235,-124,-1443,-836
-919,-3504,-1286,-30,-1466,-929
-834,-3541,-1377,84,-1391,-965
-789,-3565,-1423,239,-1403,-988
-678,-3556,-1459,394,-1450,-1020
-581,-3494,-1435,536,-1432,-1059
-467,-3440,-1473,642,-1379,-1090
-359,-3374,-1469,784,-1408,-1052
-331,-3271,-1379,920,-1442,-1004
-324,-3164,-1352,1008,-1373,-977
-369,-3048,-1337,1097,-1293,-975
-436,-2928,-1278,1192,-1223,-995
-410,-2764,-1159,1272,-1183,-1042
-366,-2637,-1063,1294,-1131,-1071
-329,-2517,-976,1310,-1098,-1048
-292,-2393,-904,1328,-1186,-971
-285,-2289,-892,1335,-1282,-870
-353,-2149,-844,1356,-1310,-787
-454,-1985,-724,1357,-1318,-753
-505,-1901,-635,1313,-1247,-779
-502,-1859,-607,1251,-1103,-840
-482,-1785,-702,1192,-971,-903
-493,-1693,-765,1182,-897,-938
-525,-1592,-679,1207,-949,-955
-456,-1491,-538,1193,-1020,-983
-363,-1423,-414,1149,-992,-1002
-404,-1335,-354,1094,-920,-983
-374,-1267,-343,1021,-970,-952
-275,-1159,-315,946,-1055,-897
-285,-1074,-270,877,-1115,-819
-324,-993,-179,792,-1185,-764
-302,-938,-107,667,-1243,-744
-263,-925,-115,528,-1204,-762
-201,-903,-207,422,-1078,-790
-177,-879,-238,366,-961,-808
-150,-830,-188,324,-859,-843
22,-795,-228,259,-775,-871
165,-775,-238,242,-772,-811
188,-722,-143,228,-841,-679
143,-679,-16,160,-956,-570
64,-650,18,30,-1044,-521
2,-666,-47,-118,-1026,-546
23,-653,-148,-230,-880,-624
-12,-675,-239,-299,-776,-667
-11,-681,-267,-341,-757,-705
100,-641,-261,-395,-770,-757
253,-635,-296,-493,-806,-775
418,-693,-414,-581,-783,-749
570,-738,-491,-604,-801,-657
634,-743,-496,-599,-925,-504
661,-788,-437,-602,-1062,-353
656,-788,-369,-618,-1062,-236
569,-796,-262,-664,-981,-158
435,-814,-188,-757,-876,-148
382,-858,-200,-881,-793,-212
446,-916,-303,-1007,-652,-348
593,-951,-432,-1105,-468,-474
724,-1020,-487,-1161,-394,-495
846,-1109,-566,-1206,-444,-436
994,-1182,-626,-1238,-486,-358
1088,-1253,-597,-1245,-471,-239
1112,-1315,-527,-1282,-464,-91
1012,-1410,-533,-1365,-432,41
891,-1475,-690,-1462,-365,109
801,-1547,-815,-1528,-333,135
721,-1644,-984,-1590,-215,92
699,-1750,-1182,-1637,16,-10
797,-1871,-1314,-1638,110,-92
945,-2009,-1438,-1610,191,-119
1030,-2115,-1433,-1541,211,-77
1115,-2265,-1382,-1463,126,9
1232,-2329,-1275,-1415,63,100
1175,-2443,-1307,-1457,87,233
985,-2587,-1506,-1506,184,305
963,-2677,-1698,-1487,261,243
1072,-2820,-1879,-1426,400,132
1183,-2913,-1947,-1313,566,67
1312,-2957,-1853,-1190,602,70
1332,-3027,-1718,-1083,622,141
1301,-3133,-1555,-989,606,219
1345,-3247,-1510,-944,699,270
1239,-3378,-1543,-895,864,344
1037,-3459,-1624,-846,964,369
913,-3515,-1825,-824,1123,274
849,-3555,-2046,-745,1312,130
837,-3607,-2181,-585,1383,30
817,-3589,-2033,-341,1281,18
768,-3482,-1794,-161,1189,31
683,-3439,-1706,-81,1211,20
574,-3435,-1653,17,1241,-37
521,-3381,-1601,119,1283,-116
470,-3343,-1582,195,1293,-155
403,-3295,-1578,270,1344,-210
313,-3237,-1592,356,1442,-299
235,-3145,-1571,456,1501,-390
252,-3064,-1514,563,1511,-474
298,-2948,-1434,686,1626,-553
278,-2838,-1366,793,1716,-577
296,-2734,-1303,880,1687,-577
347,-2611,-1185,948,1615,-549
354,-2489,-1092,970,1539,-481
341,-2409,-1134,969,1480,-412
316,-2326,-1214,1001,1517,-387
279,-2229,-1196,1070,1524,-383
211,-2115,-1113,1129,1548,-398
234,-2004,-1009,1160,1570,-451
396,-1872,-915,1158,1558,-496
569,-1753,-848,1142,1511,-445
670,-1624,-849,1143,1488,-321
693,-1505,-815,1180,1462,-164
697,-1397,-682,1235,1374,-11
762,-1265,-545,1243,1247,122
823,-1181,-437,1205,1229,231
751,-1104,-400,1141,1383,313
650,-1054,-358,1081,1503,350
585,-997,-285,1018,1605,355
599,-914,-231,929,1676,370
613,-857,-257,829,1612,460
602,-820,-291,768,1501,607
607,-763,-241,744,1331,769
578,-684,-152,714,1172,913
580,-645,-121,654,1116,1007
578,-575,-86,595,1148,1075
532,-502,-42,513,1219,1155
449,-477,-13,427,1244,1244
320,-433,5,351,1238,1320
223,-405,72,276,1207,1362
190,-381,160,183,1191,1376
195,-397,193,67,1200,1401
176,-436,140,-49,1226,1440
100,-490,86,-134,1199,1500
83,-532,65,-192,1135,1534
111,-552,62,-251,1103,1551
30,-593,56,-328,1163,1559
-89,-663,13,-404,1264,1539
-154,-709,23,-451,1257,1536
-142,-729,50,-512,1173,1562
-193,-776,31,-595,1118,1618
-350,-809,19,-669,1027,1682
-477,-847,7,-751,962,1699
-575,-901,-86,-835,929,1708
-735,-970,-167,-879,851,1737
-975,-1016,-156,-890,759,1737
-1241,-1091,-80,-921,745,1660
-1392,-1166,-31,-1000,768,1504
-1453,-1234,-119,-1113,750,1376
-1530,-1342,-232,-1205,719,1288
-1608,-1433,-288,-1259,669,1195
-1616,-1509,-325,-1309,606,1097
-1614,-1625,-326,-1357,580,1009
-1613,-1737,-413,-1408,530,959
-1626,-1826,-492,-1430,370,961
-1633,-1908,-537,-1430,151,983
-1723,-2025,-510,-1425,-11,1010
-1866,-2156,-573,-1446,-54,996
-1985,-2288,-778,-1438,-120,943
-2062,-2401,-870,-1351,-210,860
-2131,-2464,-787,-1237,-305,769
-2161,-2532,-689,-1176,-427,692
-2165,-2643,-695,-1142,-560,610
-2182,-2757,-698,-1077,-663,521
-2119,-2785,-652,-1015,-772,428
-2055,-2824,-613,-989,-873,362
-2021,-2887,-626,-966,-979,308
-2032,-2966,-681,-936,-1003,198
-2049,-3076,-738,-913,-896,17
-1882,-3171,-804,-892,-887,-197
-1691,-3272,-935,-838,-868,-341
-1582,-3366,-991,-709,-951,-380
-1433,-3372,-976,-574,-1168,-352
-1388,-3505,-984,-469,-1380,-312
-1339,-3649,-1103,-357,-1421,-372
-1191,-3698,-1169,-196,-1475,-460
-1123,-3768,-1118,-32,-1510,-534
-1084,-3864,-1063,95,-1574,-613
-898,-3926,-1064,180,-1598,-753
-662,-3959,-1132,248,-1472,-883
-481,-3982,-1240,327,-1444,-915
-365,-3985,-1363,449,-1453,-931
-292,-3910,-1509,606,-1430,-973
-228,-3766,-1636,827,-1424,-997
-158,-3561,-1548,1113,-1426,-991
-153,-3337,-1334,1323,-1499,-916
-227,-3111,-1184,1431,-1565,-819
-385,-2935,-1053,1509,-1649,-766
-494,-2748,-941,1555,-1641,-797
-523,-2534,-816,1564,-1587,-877
-553,-2364,-712,1528,-1547,-947
-526,-2221,-642,1485,-1488,-999
-491,-2060,-555,1433,-1430,-1016
-407,-1940,-488,1358,-1391,-996
-305,-1812,-400,1272,-1326,-937
-317,-1732,-401,1172,-1276,-834
-348,-1649,-452,1119,-1337,-720
-408,-1524,-428,1105,-1416,-640
-539,-1448,-384,1057,-1391,-642
-685,-1436,-434,995,-1250,-746
-663,-1398,-578,972,-1125,-897
-506,-1340,-649,1011,-1115,-1000
-451,-1267,-530,1073,-1119,-1033
-378,-1174,-376,1079,-1177,-1015
-299,-1114,-284,1028,-1372,-939
-315,-1046,-211,958,-1442,-879
-320,-974,-123,868,-1404,-898
-292,-939,-108,752,-1320,-951
-240,-917,-143,653,-1215,-1008
-209,-895,-184,579,-1125,-1071
-161,-893,-192,528,-995,-1139
-49,-842,-124,493,-959,-1164
77,-809,-62,428,-1104,-1108
176,-795,-43,336,-1145,-1042
271,-806,-63,245,-1123,-983
364,-826,-105,164,-1124,-902
485,-838,-145,102,-1177,-795
593,-836,-166,45,-1271,-650
617,-819,-168,-19,-1282,-534
587,-797,-166,-75,-1189,-467
564,-757,-132,-120,-1101,-410
538,-733,-67,-174,-986,-366
527,-721,-11,-243,-847,-350
627,-702,45,-323,-778,-318
691,-693,59,-419,-715,-243
632,-733,51,-503,-609,-138
549,-744,111,-575,-659,-34
500,-756,180,-702,-810,20
504,-814,133,-865,-899,3
467,-850,22,-997,-823,-63
490,-900,-127,-1116,-788,-127
560,-971,-242,-1197,-798,-193
651,-1008,-224,-1255,-707,-279
769,-1110,-320,-1337,-577,-341
892,-1195,-406,-1373,-503,-357
1077,-1224,-426,-1398,-491,-331
1236,-1307,-431,-1439,-500,-226
1337,-1406,-406,-1476,-445,-99
1391,-1498,-424,-1542,-345,37
1374,-1593,-491,-1619,-200,176
1320,-1678,-608,-1695,-128,316
1218,-1742,-810,-1765,-59,443
1001,-1813,-1065,-1788,35,543
797,-1896,-1250,-1760,104,547
712,-2013,-1277,-1683,156,486
729,-2086,-1192,-1607,187,399
818,-2089,-1107,-1586,260,321
918,-2099,-985,-1596,296,287
986,-2154,-897,-1642,279,344
1044,-2191,-970,-1744,295,439
1025,-2243,-1113,-1823,327,550
951,-2362,-1363,-1862,404,617
895,-2482,-1553,-1815,584,576
821,-2630,-1667,-1733,750,508
890,-2809,-1791,-1610,830,433
984,-2890,-1757,-1433,875,390
1039,-2978,-1740,-1319,943,382
1132,-3062,-1797,-1243,1047,371
1188,-3146,-1852,-1156,1111,394
1162,-3228,-1889,-1050,1178,443
1094,-3256,-1843,-938,1203,477
1066,-3336,-1806,-855,1210,502
971,-3434,-1752,-748,1177,563
846,-3482,-1709,-635,1207,574
697,-3575,-1837,-550,1455,502
566,-3666,-1980,-395,1631,401
540,-3715,-2009,-193,1658,310
479,-3766,-1989,-2,1713,247
374,-3765,-1959,184,1737,197
321,-3714,-1914,361,1724,124
221,-3661,-1866,526,1804,13
156,-3548,-1777,692,1908,-141
177,-3409,-1664,813,1886,-258
151,-3266,-1537,902,1802,-317
119,-3092,-1363,950,1667,-360
140,-2906,-1181,903,1450,-386
203,-2764,-1148,797,1111,-398
370,-2701,-1272,745,880,-388
512,-2558,-1389,817,980,-372
549,-2430,-1441,934,1165,-303
419,-2313,-1455,1068,1330,-227
353,-2170,-1441,1204,1490,-224
420,-1996,-1367,1326,1611,-228
434,-1841,-1276,1414,1689,-175
402,-1699,-1214,1481,1705,-73
362,-1542,-1033,1563,1627,52
417,-1359,-821,1584,1554,148
473,-1227,-680,1535,1498,265
489,-1127,-562,1467,1439,402
504,-1037,-508,1384,1427,513
485,-956,-474,1311,1467,606
491,-906,-452,1236,1569,655
475,-869,-516,1163,1687,702
366,-833,-592,1146,1734,770
250,-811,-572,1172,1786,810
236,-716,-384,1199,1828,829
237,-593,-228,1150,1766,920
196,-507,-118,1053,1584,1092
197,-411,30,932,1394,1271
248,-318,143,775,1242,1453
202,-241,195,593,1091,1660
-52,-232,210,429,1018,1786
-352,-268,178,284,1195,1703
-481,-338,33,149,1458,1490
-360,-425,-126,94,1495,1332
-200,-399,39,114,1351,1334
-105,-350,167,34,1256,1446
-117,-360,183,-96,1154,1609
-252,-354,205,-207,965,1771
-437,-375,255,-321,852,1835
-540,-408,247,-449,923,1767
-638,-507,211,-564,1011,1706
-789,-567,191,-664,1000,1691
-947,-670,154,-769,948,1652
-1117,-787,137,-868,998,1553
-1271,-846,118,-981,1048,1419
-1317,-914,-47,-1119,1056,1292
-1371,-1006,-212,-1203,1038,1205
-1444,-1072,-222,-1239,968,1141
-1520,-1141,-202,-1282,879,1089
-1611,-1244,-221,-1332,754,1061
-1677,-1330,-286,-1379,677,1023
-1795,-1437,-324,-1418,608,985
-1923,-1537,-338,-1464,398,954
-2011,-1645,-363,-1523,199,903
-2064,-1774,-426,-1575,4,852
-2120,-1933,-497,-1591,-142,781
-2173,-2079,-523,-1574,-216,655
-2104,-2180,-536,-1565,-210,506
-2022,-2300,-648,-1552,-151,417
-1988,-2417,-704,-1505,-228,408
-2012,-2570,-720,-1441,-421,451
-2046,-2726,-756,-1356,-610,464
-2075,-2856,-761,-1256,-745,417
-2113,-2951,-751,-1159,-855,335
-2105,-2991,-760,-1088,-947,242
-2138,-3057,-806,-1018,-1076,148
-2024,-3039,-827,-942,-1157,36
-1961,-3065,-787,-863,-1273,-16
-1949,-3142,-778,-808,-1386,-81
-1868,-3171,-841,-780,-1374,-228
-1850,-3233,-906,-729,-1334,-351
-1788,-3209,-904,-644,-1403,-455
-1726,-3232,-958,-581,-1512,-531
-1764,-3272,-1081,-492,-1569,-625
-1716,-3234,-997,-357,-1728,-746
-1590,-3202,-884,-278,-1834,-862
-1478,-3221,-976,-280,-1757,-1008
-1451,-3285,-1173,-248,-1675,-1152
-1350,-3332,-1277,-152,-1739,-1294
-1062,-3333,-1348,-52,-1815,-1450
-811,-3390,-1473,50,-1744,-1572
-518,-3400,-1572,201,-1631,-1635
-216,-3384,-1682,370,-1675,-1596
-113,-3318,-1717,584,-1781,-1446
-138,-3256,-1647,788,-1866,-1336
-82,-3159,-1542,957,-1853,-1328
-29,-3045,-1460,1083,-1699,-1347
-8,-2902,-1380,1189,-1543,-1345
-48,-2764,-1294,1279,-1477,-1294
-78,-2613,-1183,1361,-1483,-1223
-63,-2448,-1015,1411,-1486,-1153
-97,-2298,-901,1405,-1442,-1068
-174,-2179,-867,1377,-1446,-963
-237,-2087,-856,1363,-1474,-891
-307,-1977,-816,1375,-1422,-889
-322,-1892,-720,1381,-1355,-931
-241,-1787,-589,1366,-1270,-977
-248,-1700,-549,1321,-1141,-986
-326,-1645,-561,1292,-1060,-975
-352,-1484,-489,1275,-1068,-971
-362,-1349,-384,1218,-1132,-939
-366,-1248,-286,1135,-1235,-898
-394,-1147,-222,1034,-1278,-877
-402,-1077,-161,936,-1252,-894
-355,-997,-111,846,-1173,-946
-280,-941,-144,748,-1097,-985
-233,-947,-155,677,-1078,-1008
-168,-886,-108,633,-1082,-1028
-109,-817,-31,573,-1037,-1047
-117,-769,13,492,-967,-1066
-91,-714,54,393,-985,-1081
-15,-647,104,279,-1024,-1085
66,-613,100,130,-1022,-1085
120,-653,-26,-18,-960,-1086
186,-699,-182,-113,-878,-1086
245,-690,-214,-157,-849,-1077
360,-690,-208,-217,-837,-1084
436,-695,-235,-283,-808,-1070
541,-666,-263,-342,-790,-1032
687,-637,-277,-399,-815,-968
840,-638,-294,-455,-812,-853
926,-622,-293,-495,-795,-685
935,-608,-252,-545,-847,-470
838,-647,-216,-614,-840,-289
778,-687,-247,-685,-829,-185
692,-694,-169,-727,-750,-162
637,-707,-159,-824,-745,-167
627,-748,-193,-920,-769,-187
706,-783,-225,-995,-761,-208
765,-839,-224,-1055,-740,-201
848,-858,-199,-1134,-637,-227
956,-902,-234,-1251,-525,-217
975,-960,-276,-1356,-487,-124
958,-1058,-337,-1462,-481,-40
1022,-1168,-457,-1553,-377,-22
1047,-1257,-581,-1623,-241,23
1023,-1388,-743,-1665,-233,124
988,-1499,-820,-1664,-260,195
1018,-1616,-859,-1670,-198,224
1089,-1682,-848,-1700,-174,257
1047,-1775,-964,-1766,-145,342
987,-1925,-1124,-1791,-11,387
1048,-1979,-1202,-1772,31,387
1069,-2054,-1279,-1759,119,417
1032,-2174,-1274,-1747,230,444
1046,-2301,-1292,-1740,272,482
1000,-2391,-1319,-1721,280,549
1009,-2488,-1452,-1709,311,607
982,-2557,-1547,-1670,409,654
812,-2644,-1614,-1629,554,656
698,-2769,-1776,-1580,678,577
764,-2923,-1825,-1474,730,468
875,-3023,-1730,-1347,792,379
928,-3116,-1690,-1280,899,325
958,-3304,-1795,-1230,951,283
1001,-3410,-1879,-1125,1023,221
1093,-3462,-1922,-1002,1088,153
1217,-3488,-1956,-873,1163,119
1237,-3512,-1952,-746,1215,167
1138,-3524,-1988,-607,1262,227
1034,-3534,-2000,-435,1256,253
894,-3513,-1966,-251,1288,247
734,-3491,-1932,-82,1357,201
602,-3437,-1874,82,1357,148
517,-3380,-1813,232,1350,65
455,-3270,-1714,359,1392,-31
456,-3177,-1659,451,1454,-116
479,-3076,-1596,536,1483,-188
459,-2980,-1520,613,1528,-246
494,-2862,-1426,685,1523,-294
548,-2737,-1340,732,1531,-313
546,-2638,-1293,771,1576,-303
509,-2530,-1258,812,1576,-289
460,-2456,-1303,845,1608,-297
447,-2405,-1386,910,1688,-310
434,-2327,-1360,1027,1660,-292
480,-2194,-1232,1124,1593,-264
532,-2084,-1113,1159,1559,-206
517,-1998,-1072,1159,1497,-99
482,-1914,-1047,1172,1387,11
402,-1832,-976,1202,1289,75
338,-1754,-879,1208,1289,56
411,-1672,-782,1184,1349,12
539,-1614,-726,1148,1344,39
648,-1530,-683,1112,1347,105
643,-1476,-662,1069,1386,200
564,-1418,-652,1041,1465,280
595,-1351,-602,1026,1410,363
629,-1254,-534,1024,1332,480
508,-1150,-456,1007,1295,585
387,-1071,-374,953,1363,605
407,-1028,-317,881,1451,595
539,-950,-298,803,1473,633
610,-871,-277,734,1447,774
668,-779,-184,675,1297,1013
690,-666,-75,593,1119,1288
479,-590,-34,504,989,1535
104,-568,-50,429,916,1600
-134,-588,-88,353,1169,1386
-156,-605,-133,289,1494,1126
-26,-595,-159,250,1532,1018
134,-582,-115,209,1440,1077
151,-567,1,150,1301,1245
154,-554,59,45,1142,1424
181,-565,35,-77,988,1603
75,-598,-38,-170,902,1748
-43,-638,-50,-229,908,1788
-114,-664,-72,-291,962,1765
-223,-711,-147,-353,1039,1732
-295,-791,-181,-381,1060,1710
-381,-783,-96,-400,1015,1729
-502,-816,-75,-450,930,1744
-613,-827,-94,-493,863,1716
-780,-814,-32,-535,809,1664
-917,-826,25,-623,756,1592
-943,-863,-20,-746,710,1505
-917,-921,-31,-846,625,1458
-1015,-959,-65,-935,628,1441
-1189,-1047,-113,-1021,648,1403
-1369,-1097,-53,-1094,607,1328
-1519,-1186,-40,-1206,557,1207
-1594,-1304,-175,-1316,580,1035
-1612,-1365,-291,-1392,626,867
-1612,-1453,-400,-1449,594,778
-1601,-1536,-490,-1479,415,761
-1646,-1619,-565,-1495,153,776
-1784,-1716,-580,-1488,-3,788
-1969,-1797,-479,-1474,-122,754
-2101,-1891,-331,-1494,-330,679
-2224,-2020,-314,-1585,-341,512
-2286,-2156,-520,-1717,-168,239
-2230,-2333,-760,-1767,-123,30
-2095,-2499,-942,-1723,-314,-45
-1935,-2671,-1065,-1641,-561,-49
-1782,-2836,-1106,-1531,-710,-43
-1716,-2966,-1181,-1416,-786,-32
-1798,-3100,-1200,-1260,-955,0
-1790,-3195,-1169,-1102,-1148,-36
-1774,-3274,-1078,-964,-1262,-108
-1763,-3331,-994,-878,-1384,-197
-1770,-3375,-976,-830,-1481,-281
-1783,-3447,-996,-786,-1575,-374
-1646,-3498,-1086,-752,-1664,-512
-1505,-3600,-1258,-686,-1630,-652
-1393,-3714,-1383,-538,-1582,-793
-1216,-3746,-1395,-358,-1630,-925
-1106,-3758,-1389,-206,-1619,-1024
-993,-3814,-1412,-67,-1593,-1130
-755,-3813,-1448,76,-1586,-1229
-571,-3807,-1482,216,-1646,-1224
-494,-3773,-1522,362,-1723,-1165
-516,-3681,-1540,511,-1747,-1135
-563,-3588,-1594,654,-1698,-1174
-511,-3455,-1668,813,-1657,-1237
-477,-3280,-1610,1003,-1745,-1238
-421,-3106,-1477,1136,-1837,-1247
-392,-2968,-1415,1198,-1797,-1295
-253,-2833,-1405,1260,-1766,-1328
-119,-2725,-1340,1330,-1784,-1308
41,-2601,-1230,1393,-1779,-1239
138,-2449,-1090,1427,-1706,-1125
141,-2339,-1016,1422,-1707,-956
43,-2230,-924,1415,-1762,-805
-132,-2130,-840,1373,-1671,-767
-239,-2062,-810,1310,-1430,-834
-224,-1990,-799,1250,-1265,-906
-88,-1903,-812,1198,-1214,-914
-50,-1805,-751,1155,-1160,-842
-131,-1745,-719,1102,-1161,-758
-167,-1648,-679,1054,-1219,-707
-183,-1537,-622,1010,-1278,-681
-219,-1435,-580,952,-1302,-670
-281,-1350,-596,900,-1272,-689
-302,-1276,-659,890,-1181,-746
-327,-1163,-602,912,-1187,-791
-375,-1036,-448,912,-1245,-850
-366,-920,-316,848,-1227,-930
-367,-844,-258,760,-1211,-1007
-294,-777,-207,656,-1179,-1089
-166,-691,-161,531,-1137,-1134
-82,-679,-147,405,-1157,-1127
10,-671,-161,298,-1142,-1102
43,-711,-236,216,-1077,-1082
9,-696,-258,188,-1058,-1083
75,-649,-138,155,-1076,-1115
139,-617,3,61,-1014,-1169
153,-639,-24,-82,-895,-1220
218,-618,-65,-192,-898,-1243
314,-577,-108,-304,-999,-1231
443,-591,-210,-415,-1039,-1203
545,-600,-258,-489,-1020,-1183
745,-629,-373,-564,-986,-1158
806,-675,-428,-588,-946,-1063
843,-695,-404,-603,-980,-960
912,-699,-334,-636,-1010,-867
919,-697,-244,-708,-974,-789
883,-699,-238,-805,-880,-748
838,-724,-258,-889,-846,-710
815,-753,-279,-957,-889,-661
835,-752,-272,-1025,-853,-631
893,-791,-276,-1127,-807,-600
999,-913,-343,-1228,-803,-543
1121,-997,-410,-1294,-721,-498
1171,-1042,-495,-1347,-633,-407
1197,-1129,-584,-1380,-641,-279
1092,-1158,-558,-1385,-663,-171
953,-1197,-490,-1432,-640,-137
888,-1263,-521,-1518,-516,-185
920,-1295,-686,-1617,-362,-258
1013,-1417,-887,-1693,-227,-302
1126,-1538,-958,-1691,-157,-309
1283,-1601,-970,-1706,-132,-301
1409,-1745,-1038,-1754,21,-270
1503,-1885,-1090,-1762,101,-191
1645,-1915,-1153,-1782,118,-86
1745,-1966,-1347,-1827,186,93
1663,-2032,-1457,-1823,140,344
1508,-2067,-1504,-1822,32,553
1300,-2139,-1639,-1827,113,637
1117,-2270,-1820,-1802,289,600
1092,-2364,-1951,-1692,412,510
1121,-2384,-1913,-1552,439,443
1154,-2443,-1883,-1462,475,415
1167,-2523,-1894,-1370,577,366
1287,-2554,-1873,-1266,694,293
1383,-2582,-1833,-1212,844,271
1410,-2652,-1841,-1187,978,289
1527,-2710,-1825,-1156,993,344
1587,-2790,-1858,-1121,1056,429
1506,-2910,-1999,-1067,1268,481
1381,-3054,-2157,-952,1387,489
1331,-3118,-2193,-773,1452,434
1281,-3179,-2224,-594,1587,373
1229,-3235,-2262,-413,1679,369
1179,-3230,-2276,-225,1627,416
1063,-3196,-2223,-52,1519,501
855,-3137,-2151,95,1479,551
719,-3045,-2041,216,1470,530
647,-2951,-1946,309,1515,474
549,-2876,-1870,403,1569,409
513,-2746,-1760,493,1630,324
533,-2640,-1669,561,1640,276
600,-2544,-1651,645,1652,248
653,-2422,-1595,752,1679,250
678,-2325,-1519,843,1685,286
727,-2206,-1446,918,1705,322
742,-2114,-1419,976,1716,381
707,-1993,-1342,1043,1698,463
587,-1888,-1240,1090,1623,554
423,-1796,-1196,1122,1602,569
298,-1723,-1146,1155,1710,477
329,-1631,-1034,1179,1756,386
431,-1550,-955,1183,1674,372
514,-1468,-859,1183,1642,400
559,-1427,-813,1166,1617,466
648,-1371,-739,1149,1602,541
738,-1312,-661,1116,1539,664
799,-1260,-645,1070,1447,832
756,-1206,-679,1045,1361,1018
541,-1146,-651,1047,1296,1148
329,-1110,-592,1025,1454,1098
274,-1061,-557,986,1626,998
313,-1002,-509,957,1591,982
360,-917,-406,926,1531,1042
321,-848,-322,871,1424,1162
327,-788,-236,805,1241,1287
360,-734,-166,720,1076,1427
336,-674,-143,631,1051,1565
243,-632,-145,546,998,1707
119,-615,-155,476,927,1799
-24,-609,-97,431,912,1803
-85,-601,-63,367,978,1739
-90,-613,-67,303,1040,1704
-78,-598,-21,253,1001,1719
-80,-588,40,191,928,1776
-117,-589,69,127,828,1890
-258,-591,167,63,665,2020
-439,-630,216,-45,602,2052
-634,-702,187,-180,691,1963
-730,-770,82,-312,801,1825
-774,-844,-45,-411,839,1698
-775,-899,-114,-471,865,1604
-791,-946,-107,-521,822,1573
-860,-985,-121,-578,709,1587
-986,-1018,-134,-635,588,1609
-1092,-1018,-69,-686,469,1617
-1225,-1033,1,-770,353,1617
-1367,-1093,-15,-881,319,1575
-1500,-1159,-12,-973,287,1501
-1680,-1240,48,-1059,220,1411
-1848,-1338,68,-1161,168,1270
-1921,-1447,2,-1259,184,1070
-1920,-1517,-129,-1341,209,880
-1914,-1606,-212,-1412,225,729
-1914,-1743,-276,-1476,129,649
-1848,-1858,-342,-1529,-36,594
-1875,-1983,-459,-1567,-110,557
-2033,-2097,-516,-1565,-215,512
-2104,-2168,-529,-1573,-365,390
-2103,-2298,-632,-1599,-457,247
-2078,-2449,-783,-1589,-548,118
-1957,-2588,-907,-1524,-636,-16
-1857,-2728,-953,-1421,-661,-131
-1724,-2849,-1009,-1326,-754,-199
-1611,-2915,-1038,-1210,-936,-200
-1613,-2964,-975,-1100,-1147,-167
-1629,-3007,-919,-1031,-1285,-177
-1604,-3118,-971,-991,-1319,-244
-1571,-3264,-1080,-927,-1318,-361
-1465,-3336,-1181,-839,-1303,-525
-1335,-3393,-1247,-726,-1260,-662
-1267,-3469,-1292,-592,-1325,-735
-1110,-3424,-1245,-452,-1465,-762
-1162,-3458,-1158,-332,-1517,-768
-1114,-3525,-1241,-254,-1553,-870
-978,-3553,-1311,-127,-1557,-1012
-849,-3561,-1264,18,-1532,-1135
-683,-3584,-1290,110,-1487,-1238
-526,-3653,-1443,205,-1425,-1307
-392,-3673,-1571,365,-1362,-1392
-180,-3637,-1577,563,-1367,-1444
84,-3541,-1502,757,-1374,-1414
188,-3399,-1436,906,-1337,-1289
115,-3248,-1394,1034,-1320,-1158
-7,-3089,-1307,1151,-1351,-1067
-84,-2909,-1196,1252,-1419,-1023
-150,-2722,-1031,1327,-1434,-1015
-198,-2540,-892,1357,-1416,-1009
-282,-2403,-827,1353,-1374,-1018
-351,-2276,-771,1337,-1280,-1061
-299,-2155,-733,1315,-1187,-1112
-233,-2063,-718,1284,-1139,-1100
-180,-1987,-684,1258,-1157,-1033
-109,-1895,-600,1235,-1157,-973
-158,-1822,-586,1196,-1058,-906
-215,-1692,-562,1164,-1011,-845
-242,-1587,-498,1137,-1031,-804
-323,-1498,-415,1101,-1001,-784
-437,-1429,-392,1055,-947,-807
-536,-1376,-389,1024,-865,-893
-504,-1249,-342,991,-847,-1017
-389,-1135,-283,933,-862,-1111
-299,-1055,-239,850,-812,-1137
-241,-975,-181,756,-827,-1110
-188,-921,-129,651,-898,-1070
-182,-847,-124,525,-913,-1028
-224,-819,-170,390,-952,-1002
-212,-801,-236,280,-957,-1038
-226,-804,-366,209,-876,-1117
-193,-783,-431,189,-854,-1191
-100,-768,-366,194,-897,-1259
35,-752,-299,153,-912,-1299
162,-747,-262,76,-902,-1273
266,-722,-266,-18,-954,-1205
418,-737,-301,-120,-990,-1147
519,-742,-386,-220,-922,-1085
633,-762,-481,-283,-921,-991
729,-764,-490,-302,-981,-864
755,-756,-457,-326,-959,-729
714,-743,-436,-369,-1025,-583
599,-726,-362,-424,-1128,-472
533,-702,-275,-506,-1149,-447
532,-706,-240,-612,-1139,-466
602,-709,-285,-739,-1106,-507
630,-734,-340,-843,-1076,-526
600,-760,-338,-921,-1077,-536
656,-801,-343,-1008,-1124,-566
832,-850,-406,-1116,-1056,-617
962,-902,-483,-1227,-869,-644
1019,-968,-603,-1325,-776,-594
1074,-1002,-651,-1390,-834,-485
1111,-1038,-673,-1460,-891,-368
