ax,ay,az,gx,gy,gz
-561,-3183,-895,237,-535,-909
-253,-3179,-896,356,-571,-1070
97,-3176,-882,464,-718,-1142
419,-3112,-906,569,-783,-1168
784,-3041,-973,706,-748,-1156
1048,-3045,-1092,868,-652,-1140
1141,-3084,-1180,1118,-584,-1129
1218,-2877,-1049,1455,-595,-1134
1309,-2652,-755,1704,-658,-1090
1338,-2496,-519,1739,-570,-987
1274,-2391,-400,1673,-426,-880
1225,-2303,-317,1626,-368,-804
1201,-2168,-205,1599,-412,-735
1128,-2011,-123,1543,-453,-684
1046,-1897,-75,1471,-498,-663
1039,-1800,-46,1391,-513,-672
1113,-1711,-33,1273,-459,-665
1075,-1742,-184,1139,-398,-629
1081,-1747,-334,1108,-303,-636
1150,-1669,-421,1177,-248,-686
1250,-1576,-469,1272,-184,-720
1314,-1472,-423,1346,-37,-726
1268,-1350,-324,1367,95,-673
1244,-1248,-157,1311,205,-586
1212,-1227,-30,1185,402,-509
1131,-1178,74,1080,437,-431
1096,-1111,180,1021,319,-398
1161,-977,318,967,194,-415
1212,-865,363,855,101,-380
1145,-843,241,715,46,-284
1061,-842,56,627,8,-190
1032,-787,-62,609,73,-153
1066,-718,-33,609,211,-160
999,-701,9,560,320,-112
847,-653,90,507,391,-69
780,-589,250,435,434,-100
697,-602,310,278,397,-89
587,-630,358,126,305,-24
554,-678,450,-25,206,52
567,-737,486,-212,37,146
674,-805,448,-384,-102,182
724,-983,319,-509,-150,165
746,-1162,102,-560,-136,130
830,-1326,-84,-500,-87,80
910,-1395,-67,-374,-85,80
856,-1414,33,-273,-137,142
751,-1403,150,-253,-211,213
660,-1389,266,-331,-284,249
476,-1441,236,-521,-241,230
260,-1601,-65,-729,-112,106
228,-1793,-393,-800,-35,-60
259,-1913,-695,-716,23,-169
197,-1945,-900,-534,16,-198
29,-1904,-925,-282,-68,-201
-22,-1742,-731,-63,-241,-184
14,-1610,-459,0,-437,-119
-31,-1540,-196,-66,-604,-49
-173,-1539,-64,-212,-677,-51
-316,-1631,-112,-399,-710,-129
-342,-1777,-253,-514,-858,-228
-147,-1871,-362,-502,-1039,-342
171,-1855,-299,-426,-1146,-433
469,-1830,-213,-365,-1105,-523
631,-1879,-199,-336,-1043,-585
655,-1911,-248,-286,-1005,-609
674,-1905,-317,-213,-1031,-597
741,-1894,-224,-150,-1290,-456
701,-1935,-99,-163,-1529,-259
659,-1942,29,-207,-1678,-201
800,-1909,186,-274,-1676,-336
1070,-1874,253,-397,-1454,-588
1456,-1850,174,-557,-1129,-840
1864,-1887,-9,-705,-853,-954
2100,-1949,-230,-743,-830,-856
2211,-1929,-362,-635,-1039,-615
2271,-1969,-400,-511,-1230,-379
2436,-1923,-280,-415,-1310,-208
2482,-1881,-86,-365,-1290,-59
2312,-1954,-4,-398,-1199,62
2180,-2042,-34,-469,-1102,144
2042,-2054,-89,-493,-1098,221
1935,-1984,-136,-480,-1159,260
2075,-1933,-167,-496,-1043,182
2447,-1919,-233,-573,-645,49
2622,-2061,-496,-629,-235,12
2666,-2221,-773,-564,-104,99
2735,-2207,-779,-367,-171,272
2628,-2127,-618,-203,-251,500
2369,-2048,-516,-161,-170,653
2088,-2002,-476,-154,-25,680
1903,-1926,-445,-153,102,623
1803,-1825,-459,-206,257,536
1731,-1752,-498,-265,435,460
1713,-1710,-521,-309,580,418
1855,-1583,-524,-322,702,404
2044,-1469,-512,-322,843,425
2208,-1409,-478,-335,991,496
2264,-1389,-413,-324,1080,637
2196,-1347,-312,-307,1016,838
2039,-1271,-193,-326,880,1062
1815,-1227,-198,-428,819,1236
1547,-1263,-280,-577,917,1287
1442,-1281,-344,-713,1205,1156
1476,-1353,-522,-845,1571,952
1508,-1485,-755,-888,1823,847
1643,-1506,-820,-811,1923,867
1641,-1467,-740,-709,1819,1037
1411,-1428,-609,-656,1677,1247
1189,-1395,-451,-671,1683,1277
1015,-1447,-453,-797,1834,1166
803,-1582,-679,-960,2014,1062
577,-1702,-907,-1051,2040,1046
319,-1809,-1083,-1073,1922,1080
97,-1887,-1218,-1056,1826,1098
-50,-1989,-1326,-1013,1696,1108
-239,-2139,-1411,-925,1568,1110
-419,-2268,-1465,-814,1437,1078
-518,-2401,-1515,-724,1291,965
-817,-2561,-1624,-563,1179,935
-1138,-2521,-1519,-395,919,945
-1257,-2511,-1365,-313,712,800
-1267,-2508,-1245,-240,554,570
-1139,-2456,-1127,-176,386,320
-932,-2420,-1088,-184,324,102
-704,-2474,-1078,-190,214,-27
-491,-2546,-1024,-147,47,-100
-330,-2610,-977,-70,-56,-172
-262,-2649,-923,34,-209,-180
-319,-2632,-851,154,-400,-165
-319,-2584,-787,231,-487,-244
-204,-2594,-757,242,-424,-408
-47,-2666,-789,215,-233,-593
111,-2768,-890,209,-125,-738
331,-2891,-943,272,-173,-776
548,-2975,-926,370,-256,-686
666,-3003,-841,483,-436,-506
698,-2990,-731,599,-623,-357
661,-2943,-685,697,-697,-339
618,-2875,-706,783,-643,-460
614,-2808,-792,863,-492,-642
664,-2736,-871,947,-382,-792
759,-2703,-938,1019,-333,-837
800,-2670,-964,1102,-372,-751
655,-2624,-938,1240,-521,-608
461,-2473,-818,1412,-733,-502
431,-2193,-551,1535,-906,-471
539,-1967,-285,1507,-932,-500
681,-1827,-123,1378,-836,-601
929,-1692,31,1230,-749,-723
1258,-1604,140,1048,-625,-811
1478,-1587,158,830,-451,-834
1424,-1629,99,628,-303,-754
1145,-1690,-79,489,-184,-636
932,-1657,-264,463,-226,-604
886,-1581,-424,521,-317,-649
897,-1541,-598,595,-342,-697
1067,-1512,-728,694,-327,-747
1397,-1439,-747,825,-239,-785
1601,-1352,-669,979,-79,-748
1613,-1240,-552,1120,26,-648
1502,-1127,-415,1221,26,-531
1405,-971,-174,1256,-5,-402
1417,-830,59,1168,32,-308
1405,-810,206,1005,98,-241
1342,-811,250,838,127,-192
1239,-797,243,693,116,-159
1132,-806,183,551,84,-128
1069,-821,123,430,85,-106
1053,-795,75,340,108,-101
1043,-813,28,277,184,-129
1064,-888,-4,247,343,-199
1036,-1014,-31,239,380,-189
963,-1059,30,279,283,-98
917,-1033,195,316,112,10
845,-1005,360,263,-61,108
785,-959,479,146,-213,167
761,-961,529,-21,-312,160
849,-985,516,-214,-293,92
962,-1032,418,-431,-128,32
866,-1208,160,-598,31,6
717,-1344,-66,-613,34,-8
656,-1367,-164,-544,-76,19
591,-1388,-251,-496,-180,94
489,-1444,-392,-438,-242,171
344,-1409,-447,-328,-252,194
116,-1360,-462,-215,-243,166
-136,-1346,-456,-166,-156,57
-382,-1375,-476,-201,-55,-104
-445,-1441,-502,-254,-39,-289
-329,-1485,-458,-284,-192,-409
-171,-1518,-410,-305,-458,-421
43,-1505,-301,-326,-637,-457
398,-1475,-185,-343,-697,-563
844,-1484,-104,-379,-700,-645
1221,-1567,-45,-432,-717,-638
1286,-1705,-41,-494,-814,-485
1129,-1754,27,-539,-986,-302
834,-1790,56,-607,-1054,-240
631,-1822,5,-695,-1025,-328
882,-1760,-13,-766,-1006,-507
1524,-1688,-11,-885,-854,-642
2021,-1751,-124,-1116,-718,-551
2202,-1994,-374,-1273,-714,-306
2265,-2166,-511,-1209,-811,-65
2133,-2279,-591,-1051,-950,149
1868,-2346,-637,-889,-1056,294
1638,-2427,-729,-743,-1062,358
1574,-2462,-753,-593,-1105,401
1593,-2470,-726,-461,-1078,375
1738,-2450,-700,-347,-1007,244
2029,-2390,-627,-286,-826,79
2276,-2368,-582,-306,-513,-17
2276,-2428,-644,-343,-311,13
2011,-2529,-767,-331,-287,108
1811,-2504,-785,-239,-357,187
1705,-2417,-731,-127,-439,253
1544,-2390,-781,-70,-444,298
1456,-2327,-807,19,-419,275
1424,-2199,-719,132,-325,188
1531,-2070,-665,190,-121,41
1874,-1918,-572,245,37,-69
2192,-1758,-437,285,186,-53
2181,-1671,-396,281,294,86
2050,-1524,-302,262,354,242
1980,-1379,-212,191,433,344
1963,-1301,-180,75,471,439
2007,-1222,-158,-31,519,512
2030,-1192,-196,-139,609,575
1956,-1184,-250,-228,687,676
1906,-1142,-280,-269,737,767
1882,-1095,-271,-295,751,856
1843,-1071,-250,-344,835,937
1920,-1039,-208,-417,967,970
1932,-1109,-209,-534,1103,1009
1724,-1228,-343,-690,1154,1108
1561,-1334,-447,-777,1155,1168
1445,-1422,-502,-809,1228,1167
1389,-1489,-567,-837,1339,1131
1340,-1528,-602,-806,1386,1085
1349,-1490,-534,-776,1438,1052
1285,-1452,-471,-819,1539,1043
1143,-1542,-531,-923,1624,1024
1044,-1660,-672,-1025,1634,1003
875,-1806,-830,-1100,1635,1030
588,-1934,-1004,-1133,1621,1062
205,-2082,-1216,-1117,1614,1051
-96,-2213,-1385,-1024,1634,965
-225,-2232,-1414,-878,1620,827
-333,-2293,-1467,-753,1563,711
-504,-2398,-1573,-641,1436,664
-698,-2418,-1619,-533,1220,677
-927,-2480,-1653,-445,980,658
-1086,-2522,-1665,-352,744,559
-1031,-2465,-1534,-245,620,354
-795,-2405,-1361,-164,626,90
-453,-2355,-1216,-110,587,-107
-241,-2333,-1151,-32,508,-189
-117,-2234,-1000,80,279,-157
-30,-2106,-763,161,-30,-53
8,-2077,-590,144,-224,30
70,-2138,-599,72,-287,41
193,-2226,-619,49,-338,15
350,-2337,-625,36,-342,-18
353,-2498,-719,4,-261,-35
187,-2670,-872,25,-236,-64
103,-2818,-1016,102,-247,-165
125,-2908,-1130,196,-252,-294
151,-2997,-1228,315,-270,-392
217,-3105,-1341,463,-316,-448
299,-3169,-1432,640,-405,-463
486,-3168,-1429,827,-541,-458
686,-3181,-1382,989,-544,-472
733,-3204,-1368,1151,-398,-504
741,-3099,-1278,1385,-278,-559
772,-2903,-1076,1624,-222,-605
842,-2679,-826,1776,-271,-583
888,-2474,-570,1829,-389,-477
855,-2311,-345,1803,-497,-351
786,-2198,-194,1725,-570,-297
792,-2042,-54,1660,-676,-339
897,-1873,90,1556,-721,-433
962,-1743,138,1375,-705,-496
967,-1651,87,1175,-706,-524
1044,-1626,-108,1023,-584,-603
1152,-1698,-481,991,-392,-681
1332,-1726,-789,1149,-259,-696
1540,-1646,-792,1439,-201,-632
1589,-1533,-617,1715,-203,-466
1349,-1367,-317,1909,-239,-268
1052,-1097,33,1981,-244,-175
906,-890,326,1878,-163,-222
809,-791,494,1635,-63,-324
832,-716,521,1342,48,-472
1058,-669,459,1054,101,-607
1287,-726,367,805,108,-620
1331,-817,234,630,80,-510
1271,-901,77,548,-12,-353
1236,-890,64,569,-88,-234
1185,-843,138,587,-62,-160
1107,-798,224,568,3,-135
1060,-711,366,525,62,-140
992,-649,491,409,136,-136
944,-628,554,238,137,-130
926,-663,536,30,150,-138
911,-817,358,-180,126,-137
882,-971,193,-299,11,-74
802,-1060,129,-343,-43,-27
663,-1154,29,-357,-84,-23
576,-1196,-57,-322,-173,-33
513,-1204,-92,-272,-266,-39
457,-1221,-92,-272,-311,-40
387,-1226,-52,-300,-371,-50
287,-1235,-38,-364,-404,-42
57,-1242,-102,-461,-468,-9
-209,-1242,-141,-517,-601,-15
-438,-1245,-139,-576,-720,-68
-690,-1288,-211,-662,-858,-147
-715,-1318,-293,-735,-961,-338
-198,-1367,-327,-803,-901,-664
290,-1566,-500,-862,-831,-854
493,-1734,-694,-809,-969,-811
600,-1672,-617,-607,-1207,-717
552,-1543,-388,-480,-1404,-605
249,-1543,-326,-505,-1482,-504
164,-1506,-235,-534,-1581,-547
640,-1428,-46,-618,-1646,-727
1374,-1501,-12,-808,-1523,-897
2140,-1665,-141,-1015,-1299,-931
2513,-2007,-455,-1102,-1219,-740
2416,-2281,-754,-964,-1390,-391
2051,-2193,-733,-650,-1537,-76
1602,-2055,-609,-467,-1600,148
1177,-1988,-638,-445,-1639,260
886,-1843,-631,-419,-1777,262
1090,-1702,-495,-476,-1778,85
1921,-1750,-405,-725,-1468,-222
2668,-2148,-612,-1024,-1090,-332
2825,-2638,-1022,-1094,-995,-134
2678,-2750,-1144,-765,-1228,143
2479,-2601,-950,-338,-1381,295
2203,-2429,-713,-118,-1187,264
1845,-2353,-680,-35,-868,125
1778,-2317,-732,44,-679,-20
2323,-2205,-620,93,-543,-120
2870,-2294,-598,0,-357,-29
2759,-2394,-690,109,-4,113
2621,-2127,-456,322,300,-33
2690,-1912,-310,274,377,22
2568,-1813,-225,120,352,366
2315,-1723,-193,-3,371,564
2166,-1615,-236,-72,416,548
2132,-1515,-369,-118,499,485
2060,-1430,-543,-137,591,510
1887,-1354,-682,-125,702,572
1820,-1268,-697,-79,833,563
1937,-1136,-555,-18,1001,505
2093,-938,-318,-22,1235,489
2174,-773,-162,-133,1476,519
2229,-701,-112,-306,1599,585
2364,-641,-70,-513,1616,720
2463,-654,-23,-744,1594,945
2317,-783,-45,-973,1532,1266
1878,-914,-191,-1133,1436,1565
1397,-1118,-471,-1203,1406,1683
1182,-1219,-653,-1184,1408,1630
997,-1327,-842,-1199,1575,1512
801,-1528,-1085,-1241,1860,1335
757,-1653,-1193,-1193,2089,1124
754,-1754,-1168,-1123,2203,987
519,-1881,-1193,-1071,2072,1007
265,-1910,-1220,-1013,1731,1091
126,-1921,-1214,-998,1477,1137
-115,-2081,-1404,-1080,1433,1148
-469,-2255,-1755,-1105,1370,1107
-731,-2424,-1954,-959,1262,993
-892,-2507,-1946,-762,1118,865
-1076,-2474,-1858,-583,935,770
-1234,-2393,-1663,-410,760,616
-1122,-2317,-1477,-316,691,329
-877,-2191,-1372,-277,678,87
-468,-2112,-1285,-311,592,-66
-43,-2144,-1233,-321,508,-103
225,-2136,-1127,-264,300,-4
346,-2077,-987,-203,14,180
240,-2138,-921,-174,-163,334
58,-2259,-962,-151,-257,360
18,-2353,-960,-73,-337,254
51,-2459,-960,-5,-307,91
30,-2632,-1083,18,-189,-54
34,-2773,-1178,89,-166,-165
13,-2868,-1238,187,-166,-260
9,-2945,-1313,276,-133,-360
16,-3036,-1391,368,-142,-409
112,-3085,-1369,488,-266,-412
331,-3083,-1254,611,-426,-401
488,-3111,-1202,701,-521,-381
621,-3096,-1147,863,-606,-417
782,-3010,-1102,1053,-628,-524
905,-2912,-1087,1245,-601,-629
1082,-2761,-1048,1427,-529,-723
1290,-2580,-944,1563,-477,-744
1543,-2432,-781,1631,-399,-697
1687,-2409,-727,1649,-276,-600
1598,-2350,-693,1705,-224,-445
1473,-2212,-583,1813,-223,-334
1387,-2045,-411,1869,-234,-265
1235,-1920,-302,1841,-212,-202
1087,-1822,-217,1801,-157,-186
951,-1706,-143,1771,-161,-199
886,-1572,-58,1721,-214,-228
936,-1463,33,1625,-197,-276
875,-1425,-14,1493,-149,-286
820,-1387,-114,1412,-136,-312
823,-1321,-172,1411,-102,-390
878,-1267,-241,1424,-71,-450
923,-1262,-392,1444,-53,-435
1008,-1209,-407,1523,-67,-377
1017,-1095,-209,1621,-94,-311
963,-926,45,1646,-46,-294
943,-788,283,1555,24,-323
974,-733,423,1355,78,-348
1085,-708,484,1149,21,-344
1218,-722,531,948,-57,-287
1253,-779,504,756,-89,-192
1265,-785,528,629,-142,-102
1205,-738,571,505,-161,-30
1047,-803,445,353,-123,8
985,-897,252,269,-68,-8
1019,-933,194,281,-83,-14
1059,-859,345,288,-106,14
972,-778,482,198,-64,48
801,-803,503,30,7,52
731,-811,515,-115,18,31
689,-785,526,-253,-57,28
602,-833,459,-405,-129,24
542,-906,381,-524,-172,11
504,-933,375,-621,-212,15
388,-1020,297,-739,-232,19
237,-1165,69,-828,-330,33
124,-1329,-134,-825,-468,47
43,-1441,-225,-781,-648,72
-80,-1536,-270,-734,-772,66
-291,-1590,-279,-693,-802,-28
-381,-1561,-238,-660,-822,-220
-311,-1533,-294,-678,-856,-434
-10,-1545,-363,-744,-897,-611
489,-1586,-412,-810,-874,-741
930,-1668,-476,-840,-883,-757
1180,-1832,-532,-805,-930,-669
1252,-1881,-493,-699,-1065,-477
1152,-1821,-381,-607,-1251,-252
1009,-1821,-320,-587,-1369,-116
851,-1806,-295,-589,-1410,-93
844,-1748,-282,-581,-1414,-192
1331,-1737,-164,-658,-1291,-363
1871,-1849,-197,-854,-1011,-430
2078,-2204,-514,-990,-834,-348
2043,-2484,-784,-857,-880,-171
1949,-2447,-739,-566,-1108,37
1733,-2338,-577,-367,-1246,209
1469,-2291,-502,-308,-1262,274
1280,-2278,-515,-306,-1249,241
1318,-2308,-527,-343,-1141,125
1571,-2423,-570,-401,-906,-37
1772,-2548,-631,-398,-660,-160
1885,-2561,-630,-328,-560,-197
1922,-2481,-563,-244,-587,-145
1802,-2397,-526,-210,-651,-19
1648,-2343,-566,-202,-656,79
1537,-2321,-626,-148,-637,106
1619,-2218,-529,-41,-601,50
1902,-2067,-340,-3,-439,-50
1955,-2033,-351,-19,-132,-128
2092,-1953,-377,-32,158,-276
2385,-1882,-424,-70,219,-236
2426,-1861,-430,-89,210,-7
2376,-1835,-458,-83,304,128
2406,-1779,-443,-13,397,181
2441,-1690,-390,46,500,243
2415,-1552,-344,65,559,363
2419,-1400,-224,36,642,496
2361,-1307,-170,-60,793,600
2197,-1219,-136,-147,910,679
2040,-1132,-91,-225,1100,671
2004,-1040,-34,-323,1273,626
1930,-1009,-103,-461,1384,650
1853,-1008,-198,-602,1397,768
1808,-1073,-275,-770,1394,948
1717,-1267,-475,-921,1369,1115
1530,-1483,-734,-922,1329,1219
1492,-1466,-729,-787,1293,1222
1469,-1399,-620,-728,1381,1201
1205,-1422,-640,-786,1536,1208
996,-1448,-647,-812,1669,1139
912,-1469,-641,-838,1728,1034
892,-1522,-668,-889,1669,1007
735,-1623,-776,-949,1582,1065
597,-1699,-931,-989,1454,1115
535,-1829,-1060,-1017,1414,1116
417,-1941,-1164,-994,1373,1107
262,-2016,-1246,-906,1387,1040
212,-2034,-1249,-795,1458,919
210,-2009,-1176,-687,1437,861
61,-1986,-1071,-601,1368,863
-118,-1962,-1002,-555,1346,805
-289,-1898,-923,-545,1227,792
-398,-1948,-939,-637,1122,767
-511,-2112,-1132,-722,1044,731
-697,-2240,-1363,-687,891,688
-835,-2292,-1443,-557,728,588
-859,-2311,-1424,-421,592,452
-875,-2343,-1362,-305,458,350
-943,-2351,-1267,-203,276,276
-931,-2304,-1121,-95,84,174
-866,-2256,-1010,-38,-76,57
-762,-2268,-987,-37,-184,-61
-553,-2346,-1049,-52,-266,-179
-377,-2478,-1115,-17,-382,-239
-229,-2531,-1086,62,-473,-289
-174,-2598,-1115,138,-519,-369
-135,-2660,-1167,222,-610,-438
36,-2708,-1154,327,-679,-516
374,-2704,-1063,427,-723,-592
717,-2746,-973,497,-720,-602
870,-2872,-944,558,-704,-542
913,-2922,-912,663,-683,-483
953,-2910,-887,778,-691,-445
949,-2900,-937,878,-698,-417
886,-2855,-972,1006,-709,-404
825,-2805,-1008,1130,-677,-425
926,-2746,-981,1253,-621,-480
1042,-2619,-907,1376,-511,-519
1061,-2509,-851,1479,-424,-542
1151,-2394,-760,1580,-360,-564
1275,-2225,-610,1654,-304,-541
1260,-2128,-513,1675,-279,-457
1217,-2019,-404,1687,-342,-352
1187,-1882,-211,1698,-383,-278
1066,-1788,-83,1646,-343,-235
983,-1680,10,1571,-321,-239
928,-1587,69,1480,-340,-255
909,-1491,91,1374,-377,-279
957,-1424,79,1257,-365,-324
1034,-1381,39,1155,-277,-382
1143,-1381,-30,1102,-163,-459
1218,-1427,-144,1092,-34,-494
1245,-1418,-174,1148,45,-461
1263,-1353,-103,1249,-43,-355
1179,-1254,39,1293,-172,-196
1084,-1126,261,1264,-257,-99
1030,-1028,428,1136,-224,-116
990,-1007,448,928,-105,-206
943,-1028,376,722,29,-315
989,-1078,295,546,94,-388
1029,-1130,200,407,98,-397
977,-1176,33,336,93,-367
977,-1204,-95,327,133,-343
1040,-1161,-87,358,118,-286
1036,-1075,31,386,41,-170
848,-1031,142,366,-3,-59
647,-968,266,328,-38,-38
556,-863,411,265,-28,-93
481,-772,501,136,-29,-153
493,-735,523,-28,-51,-219
547,-742,532,-194,-70,-274
577,-797,468,-351,-140,-277
638,-829,412,-460,-258,-234
645,-904,319,-552,-303,-167
575,-978,244,-605,-411,-92
428,-1012,237,-616,-484,-50
335,-1034,181,-653,-507,-80
354,-1129,57,-709,-543,-120
318,-1204,-56,-757,-614,-106
161,-1252,-130,-787,-663,-103
20,-1306,-217,-815,-696,-190
55,-1298,-242,-839,-701,-342
94,-1350,-354,-917,-639,-471
111,-1447,-550,-974,-626,-574
271,-1506,-634,-963,-674,-682
549,-1648,-742,-960,-774,-715
838,-1769,-782,-927,-968,-634
882,-1953,-920,-866,-1158,-499
913,-2115,-1073,-748,-1317,-421
1053,-2124,-990,-573,-1411,-374
990,-2081,-896,-448,-1360,-329
903,-2018,-774,-363,-1313,-356
1099,-1993,-570,-371,-1328,-412
1430,-2052,-391,-508,-1365,-368
1663,-2252,-330,-680,-1407,-240
1838,-2448,-323,-751,-1473,-129
1835,-2528,-329,-689,-1463,-67
1688,-2477,-309,-563,-1516,-21
1550,-2387,-239,-505,-1504,-7
1472,-2341,-245,-542,-1382,-60
1464,-2336,-382,-568,-1282,-160
1834,-2256,-390,-538,-1109,-327
2411,-2177,-321,-567,-775,-467
2653,-2266,-456,-641,-529,-417
2709,-2299,-532,-575,-452,-265
2693,-2246,-456,-431,-456,-102
2607,-2181,-402,-321,-492,69
2552,-2124,-401,-278,-486,243
2370,-2136,-564,-200,-399,408
2204,-2006,-563,-71,-114,240
2256,-1903,-645,-103,126,126
2248,-1837,-682,-139,266,226
2236,-1797,-682,-156,505,244
2276,-1765,-699,-129,673,247
2162,-1584,-588,-38,717,366
2044,-1430,-498,-62,757,492
2095,-1353,-393,-117,812,571
2172,-1251,-270,-160,884,631
2151,-1165,-261,-245,925,707
2082,-1107,-332,-349,925,794
1976,-1072,-440,-459,1003,861
1811,-1080,-565,-573,1191,875
1738,-1154,-678,-649,1391,831
1835,-1170,-640,-665,1477,825
1866,-1192,-522,-703,1478,949
1637,-1282,-506,-805,1424,1150
1450,-1389,-502,-872,1355,1271
1323,-1446,-553,-920,1330,1294
1186,-1531,-692,-972,1356,1253
1040,-1624,-896,-1014,1477,1169
912,-1723,-1064,-1035,1623,1089
858,-1780,-1174,-1010,1696,1024
776,-1833,-1181,-924,1663,1009
653,-1814,-1102,-849,1648,1021
599,-1736,-982,-832,1664,1006
477,-1778,-991,-876,1668,991
263,-1879,-1076,-892,1616,969
106,-1888,-1103,-864,1530,922
-44,-1954,-1209,-834,1460,868
-190,-2036,-1335,-768,1352,834
-281,-2076,-1394,-670,1197,818
-342,-2105,-1403,-573,1016,820
-421,-2156,-1366,-464,794,810
-511,-2171,-1283,-305,644,724
-667,-1999,-1038,-159,534,632
-798,-1970,-884,-239,546,498
-986,-2144,-989,-387,621,363
-1134,-2303,-1213,-435,409,238
-1117,-2396,-1444,-408,53,115
-1036,-2546,-1711,-390,-57,-59
-873,-2754,-1999,-303,-43,-284
-621,-2866,-2101,-55,-103,-456
-332,-2824,-1931,250,-243,-534
-148,-2778,-1685,462,-365,-521
-75,-2743,-1477,602,-465,-497
65,-2696,-1250,722,-574,-538
367,-2631,-1080,785,-649,-617
760,-2627,-1056,795,-657,-680
1049,-2658,-1088,812,-625,-669
1290,-2674,-1138,853,-582,-601
1506,-2721,-1177,942,-565,-506
1663,-2742,-1124,1096,-551,-374
1648,-2747,-1019,1273,-465,-231
1593,-2721,-892,1442,-431,-122
1476,-2654,-756,1575,-431,-31
1324,-2552,-637,1663,-401,-1
1216,-2489,-621,1689,-304,-43
1134,-2407,-604,1710,-195,-102
966,-2334,-621,1724,-74,-159
869,-2270,-652,1746,-22,-235
884,-2160,-586,1809,-31,-301
898,-2037,-472,1843,-13,-331
899,-1940,-386,1839,28,-355
917,-1872,-330,1830,-15,-337
962,-1736,-200,1822,-100,-277
934,-1588,-64,1776,-150,-205
823,-1481,25,1676,-156,-166
722,-1432,57,1575,-177,-174
691,-1358,108,1505,-257,-206
765,-1260,185,1423,-350,-235
834,-1221,136,1299,-404,-230
967,-1250,49,1214,-374,-266
1173,-1238,13,1208,-267,-331
1233,-1259,-62,1247,-85,-390
1175,-1216,-59,1349,58,-432
1118,-1087,75,1450,119,-448
1170,-923,319,1457,102,-409
1189,-803,523,1338,124,-328
1033,-798,531,1129,160,-229
962,-832,494,937,144,-185
1035,-857,483,809,62,-176
1158,-853,505,675,-1,-129
1220,-849,475,515,9,-62
1128,-906,431,382,0,-11
985,-968,349,284,102,-27
929,-966,325,243,175,-70
882,-898,387,202,116,-31
775,-852,458,118,42,42
631,-843,463,22,-21,82
545,-806,524,-47,-94,75
501,-753,604,-158,-131,55
443,-744,604,-323,-147,37
344,-778,586,-475,-188,25
243,-827,519,-632,-224,4
171,-906,444,-757,-275,-27
29,-1015,337,-859,-354,-53
-217,-1149,175,-933,-472,-66
-408,-1250,70,-945,-663,-95
-402,-1275,91,-936,-817,-197
-353,-1313,78,-975,-899,-341
-300,-1383,-44,-1021,-932,-507
-116,-1483,-238,-1042,-972,-680
220,-1552,-376,-1027,-1046,-782
535,-1615,-473,-982,-1115,-787
750,-1644,-508,-911,-1178,-735
823,-1647,-465,-841,-1260,-647
863,-1689,-419,-818,-1335,-574
968,-1730,-389,-847,-1378,-530
1106,-1806,-332,-867,-1423,-515
1249,-1865,-394,-918,-1382,-525
1348,-1941,-570,-935,-1388,-503
1410,-1981,-676,-880,-1437,-433
1406,-2011,-733,-825,-1431,-345
1357,-2082,-726,-765,-1416,-262
1350,-2127,-672,-693,-1380,-230
1510,-2139,-611,-638,-1353,-245
1833,-2134,-519,-628,-1315,-255
2098,-2202,-527,-692,-1218,-207
2239,-2295,-544,-710,-1123,-145
2233,-2357,-565,-671,-1050,-70
2078,-2351,-554,-623,-1091,53
1867,-2338,-534,-582,-1174,187
1706,-2382,-616,-547,-1235,272
1520,-2386,-668,-455,-1274,305
1364,-2322,-656,-348,-1180,214
1436,-2234,-621,-283,-988,7
1858,-2151,-528,-275,-673,-238
2161,-2146,-615,-331,-380,-338
2229,-2194,-825,-337,-234,-288
2293,-2202,-924,-268,-213,-121
2213,-2166,-893,-62,-204,71
2283,-1976,-596,133,-111,68
2592,-1851,-406,80,44,122
2639,-1904,-425,-38,140,331
2479,-1943,-487,-71,164,497
2381,-1901,-506,-74,193,529
2273,-1863,-579,-104,345,528
2131,-1857,-694,-143,583,504
2095,-1843,-774,-152,698,531
2082,-1774,-724,-95,787,569
2119,-1652,-610,-37,957,526
2193,-1500,-467,-10,1078,520
2205,-1341,-312,-44,1195,602
2114,-1234,-240,-134,1285,730
1949,-1127,-174,-207,1315,845
1761,-1045,-150,-302,1470,865
1657,-1008,-153,-407,1644,830
1582,-1027,-188,-519,1706,844
1518,-1091,-293,-626,1609,964
1370,-1207,-470,-716,1440,1156
1263,-1269,-551,-735,1317,1282
1085,-1323,-580,-735,1355,1279
882,-1410,-694,-768,1504,1162
914,-1475,-769,-788,1624,996
1053,-1528,-812,-823,1688,909
949,-1621,-933,-854,1672,954
772,-1653,-987,-820,1570,1006
612,-1702,-1009,-765,1519,1019
446,-1761,-1029,-726,1504,1042
273,-1798,-1005,-699,1455,1068
170,-1810,-935,-682,1340,1073
108,-1823,-928,-682,1213,1032
71,-1856,-961,-682,1105,966
39,-1891,-1014,-676,1039,894
40,-1943,-1034,-646,1016,776
-37,-1961,-1044,-569,1067,690
-225,-2030,-1109,-557,1039,679
-237,-2124,-1192,-541,913,680
-244,-2147,-1140,-433,688,668
-326,-2138,-1099,-373,503,624
-412,-2193,-1141,-389,447,546
-544,-2323,-1292,-389,416,443
-621,-2415,-1410,-309,310,308
-679,-2472,-1466,-201,229,172
-731,-2548,-1493,-109,191,56
-664,-2602,-1460,3,82,-30
-526,-2605,-1320,129,-79,-82
-497,-2652,-1200,223,-196,-132
-457,-2650,-1098,330,-286,-230
-345,-2609,-998,422,-383,-334
-178,-2601,-958,449,-450,-408
123,-2623,-929,473,-455,-512
337,-2674,-936,536,-470,-565
487,-2663,-928,647,-572,-536
653,-2627,-850,758,-684,-475
802,-2616,-756,820,-745,-409
869,-2640,-741,868,-724,-358
871,-2642,-719,953,-688,-341
959,-2579,-659,1060,-636,-386
1063,-2564,-627,1123,-573,-420
1124,-2558,-644,1152,-523,-399
1129,-2540,-651,1217,-509,-371
1175,-2505,-602,1301,-500,-367
1224,-2460,-535,1371,-448,-358
1188,-2404,-499,1424,-379,-342
1163,-2307,-413,1479,-331,-325
1150,-2209,-312,1489,-253,-313
1079,-2155,-305,1467,-189,-303
1031,-2074,-286,1481,-179,-316
1111,-1954,-209,1508,-189,-341
1133,-1903,-218,1498,-182,-314
1084,-1850,-218,1509,-197,-262
991,-1765,-155,1539,-197,-228
932,-1662,-77,1540,-185,-223
905,-1560,24,1521,-193,-229
882,-1455,111,1466,-203,-236
848,-1368,178,1370,-148,-278
836,-1306,217,1256,-36,-347
829,-1263,208,1136,68,-413
812,-1234,166,1046,82,-446
882,-1224,118,973,131,-470
1048,-1250,61,912,162,-460
1102,-1290,7,905,115,-379
1016,-1262,12,950,-10,-257
981,-1168,136,980,-145,-177
957,-1101,282,937,-190,-143
882,-1024,386,837,-164,-145
819,-966,461,705,-75,-193
824,-956,471,548,48,-258
824,-955,474,402,86,-291
823,-933,506,276,90,-303
828,-956,473,149,80,-297
871,-985,391,59,-3,-257
924,-966,360,16,-142,-169
932,-927,346,-21,-250,-74
872,-928,295,-81,-321,13
838,-920,281,-130,-327,39
802,-912,287,-188,-226,11
692,-903,281,-254,-165,-16
575,-909,279,-339,-147,-40
457,-970,243,-454,-190,-22
281,-1063,186,-561,-320,37
89,-1159,151,-635,-449,71
-28,-1252,117,-697,-513,20
-17,-1334,49,-742,-540,-102
119,-1387,11,-753,-576,-229
225,-1433,-39,-778,-612,-295
305,-1506,-127,-801,-670,-330
430,-1556,-157,-782,-770,-354
567,-1599,-144,-755,-853,-371
724,-1615,-71,-752,-897,-392
821,-1615,-30,-790,-921,-385
857,-1645,-34,-856,-954,-372
889,-1718,-94,-920,-999,-384
890,-1753,-179,-945,-1082,-375
807,-1752,-246,-967,-1168,-322
672,-1784,-318,-1020,-1215,-266
594,-1828,-387,-1049,-1219,-291
731,-1862,-423,-1045,-1157,-413
1078,-1947,-434,-1053,-1069,-520
1374,-2052,-471,-1066,-1012,-515
1466,-2152,-527,-1029,-1057,-417
1412,-2189,-553,-940,-1199,-271
1183,-2176,-593,-859,-1359,-114
958,-2144,-667,-794,-1447,-55
874,-2132,-704,-718,-1418,-115
776,-2140,-784,-674,-1323,-208
797,-2097,-810,-625,-1261,-352
1261,-2074,-732,-616,-1093,-587
1866,-2069,-726,-664,-890,-682
2179,-2107,-763,-680,-823,-540
2198,-2180,-801,-652,-825,-338
2099,-2187,-814,-567,-888,-136
1998,-2179,-772,-432,-972,19
1899,-2182,-694,-334,-1046,136
1787,-2165,-668,-284,-1052,204
1854,-2163,-630,-251,-971,179
2090,-2219,-661,-262,-727,94
2224,-2284,-755,-242,-484,63
2254,-2239,-783,-154,-302,66
2430,-2092,-669,-79,-147,73
2392,-2044,-627,-88,-20,181
2180,-2005,-689,-111,32,315
2090,-1978,-769,-75,55,409
2113,-1808,-697,41,185,350
2168,-1681,-695,21,377,298
2086,-1666,-759,-28,530,373
2052,-1591,-768,-10,681,398
2072,-1486,-751,21,744,414
2037,-1352,-641,58,810,468
2044,-1190,-477,48,974,496
2142,-1069,-314,-22,1150,514
2190,-966,-192,-119,1252,584
2160,-911,-104,-261,1291,727
2001,-934,-117,-451,1243,930
1796,-988,-231,-612,1117,1128
1637,-1070,-385,-744,1054,1258
1458,-1162,-570,-856,1054,1328
1222,-1274,-780,-911,1210,1285
1023,-1374,-965,-925,1483,1136
1105,-1403,-1017,-927,1688,980
1165,-1486,-1045,-944,1755,969
1072,-1594,-1076,-955,1627,1111
912,-1697,-1042,-927,1462,1244
679,-1781,-1011,-880,1348,1301
491,-1814,-950,-811,1306,1247
363,-1833,-924,-789,1338,1107
330,-1873,-979,-822,1330,972
327,-1945,-1083,-876,1372,879
293,-2086,-1286,-900,1399,814
267,-2116,-1358,-799,1319,783
143,-2119,-1329,-671,1257,754
-9,-2152,-1326,-558,1248,694
-123,-2096,-1231,-479,1209,650
-173,-2126,-1224,-474,1174,585
-261,-2188,-1257,-434,1037,547
-361,-2150,-1229,-365,858,510
-473,-2153,-1259,-326,746,455
-536,-2206,-1334,-312,669,388
-626,-2266,-1405,-257,543,336
-767,-2273,-1394,-138,268,315
-855,-2263,-1333,-35,15,266
-886,-2302,-1335,24,-92,131
-768,-2370,-1303,114,-108,-81
-568,-2360,-1194,211,-125,-262
-476,-2351,-1128,269,-204,-328
-431,-2371,-1071,302,-349,-349
-298,-2440,-1038,305,-467,-407
-80,-2569,-1051,305,-585,-472
177,-2681,-1045,335,-754,-486
398,-2795,-1076,379,-872,-464
569,-2893,-1164,461,-935,-441
768,-2904,-1179,623,-908,-464
992,-2858,-1134,797,-742,-544
1226,-2854,-1121,961,-548,-630
1363,-2823,-1114,1151,-470,-636
1377,-2729,-1064,1345,-470,-552
1358,-2627,-973,1478,-526,-420
1292,-2560,-870,1551,-569,-307
1166,-2508,-826,1608,-530,-265
1122,-2396,-774,1679,-479,-282
1184,-2268,-628,1737,-414,-313
1209,-2184,-546,1729,-292,-337
1129,-2129,-549,1722,-155,-371
1026,-2055,-536,1762,-72,-424
1024,-1927,-431,1812,-90,-453
1024,-1813,-293,1814,-146,-422
914,-1727,-246,1767,-239,-341
838,-1648,-169,1702,-326,-281
827,-1542,-102,1619,-355,-276
784,-1471,-95,1548,-361,-319
754,-1389,-125,1509,-335,-391
817,-1356,-150,1478,-244,-464
1028,-1313,-155,1470,-146,-522
1188,-1306,-137,1499,-101,-529
1244,-1285,-82,1545,-50,-501
1310,-1179,82,1580,6,-467
1375,-1112,221,1515,59,-402
1335,-1104,275,1403,89,-301
1246,-1046,358,1306,82,-218
1206,-975,435,1188,50,-166
1194,-920,470,1018,-2,-110
1201,-904,470,819,-6,-82
1152,-978,372,633,38,-93
1074,-1029,217,533,97,-135
1034,-1045,128,496,107,-159
1029,-1030,120,474,81,-119
987,-970,210,440,85,-67
937,-927,294,369,104,-49
912,-889,344,282,65,-29
852,-848,418,171,1,18
741,-824,445,18,-21,50
669,-835,403,-126,-26,21
671,-819,388,-230,-58,-35
666,-814,417,-347,-52,-66
548,-892,366,-498,7,-78
488,-1001,264,-607,-23,-91
502,-1023,249,-648,-159,-72
434,-1083,191,-726,-274,-15
362,-1159,87,-813,-380,26
304,-1253,12,-857,-453,19
185,-1344,-61,-868,-478,-28
63,-1407,-88,-869,-548,-63
-19,-1453,-123,-902,-611,-112
-55,-1532,-182,-939,-657,-199
15,-1627,-235,-947,-693,-320
258,-1679,-253,-931,-745,-449
516,-1743,-339,-920,-774,-517
683,-1830,-469,-879,-791,-537
776,-1916,-561,-793,-868,-528
686,-1992,-669,-669,-1044,-449
462,-1971,-708,-499,-1383,-337
282,-1870,-653,-354,-1699,-319
509,-1737,-473,-278,-1802,-460
1217,-1526,-160,-311,-1599,-663
1898,-1446,-3,-535,-1300,-685
2068,-1759,-170,-888,-927,-487
1796,-2194,-555,-1082,-844,-131
1659,-2340,-629,-934,-1192,171
1775,-2274,-370,-705,-1496,320
1653,-2255,-223,-626,-1548,421
1336,-2284,-292,-613,-1500,418
1247,-2235,-313,-582,-1441,263
1627,-2219,-220,-641,-1208,8
2102,-2300,-310,-791,-813,-203
2388,-2457,-549,-888,-532,-253
