ax,ay,az,gx,gy,gz
1267,-1175,-616,-253,-903,-713
1222,-1132,-611,-342,-860,-675
1241,-1149,-667,-428,-830,-645
1180,-1131,-694,-482,-839,-573
1093,-1087,-703,-549,-830,-528
1122,-1068,-740,-641,-806,-529
1268,-1115,-806,-742,-726,-549
1383,-1287,-930,-850,-572,-590
1472,-1437,-1001,-893,-418,-661
1632,-1452,-955,-851,-323,-712
1742,-1429,-865,-838,-269,-654
1792,-1401,-826,-883,-222,-534
1788,-1425,-830,-962,-155,-403
1815,-1508,-914,-1046,-62,-316
1887,-1573,-985,-1104,-4,-218
1891,-1698,-1094,-1169,37,-65
1795,-1876,-1203,-1192,70,108
1690,-1994,-1260,-1125,128,219
1614,-2061,-1211,-1031,256,226
1502,-2083,-1161,-963,416,156
1403,-2120,-1175,-935,579,39
1438,-2152,-1210,-928,692,-43
1476,-2167,-1224,-912,784,-69
1494,-2222,-1263,-886,887,-109
1610,-2272,-1335,-825,933,-98
1741,-2255,-1358,-732,936,21
1745,-2314,-1366,-633,997,191
1620,-2366,-1327,-471,1034,313
1483,-2255,-1166,-271,1046,336
1392,-2173,-1037,-180,1135,262
1359,-2175,-1074,-188,1299,121
1382,-2207,-1142,-188,1435,27
1388,-2196,-1172,-150,1471,69
1336,-2124,-1156,-113,1448,173
1321,-2021,-1110,-98,1444,264
1311,-1977,-1109,-122,1472,360
1274,-2014,-1181,-135,1483,468
1246,-1995,-1193,-69,1447,553
1157,-1900,-1123,8,1437,608
1009,-1844,-1053,22,1488,613
881,-1855,-1049,-6,1566,562
867,-1890,-1085,-9,1602,501
878,-1928,-1133,23,1579,502
863,-1926,-1181,86,1517,562
861,-1887,-1182,163,1454,620
868,-1859,-1153,235,1399,683
915,-1773,-1071,287,1358,749
908,-1690,-981,307,1340,802
797,-1646,-951,300,1351,833
657,-1616,-962,288,1392,795
622,-1576,-955,275,1433,704
652,-1539,-910,258,1447,654
610,-1507,-894,229,1418,685
582,-1477,-872,209,1350,743
627,-1429,-824,189,1295,795
681,-1359,-769,157,1258,853
626,-1301,-721,120,1205,927
560,-1280,-727,84,1160,967
625,-1236,-695,62,1138,958
602,-1164,-623,44,1096,966
457,-1128,-591,-7,1069,986
427,-1102,-565,-77,1038,969
442,-1103,-580,-158,985,967
478,-1151,-658,-246,921,1017
534,-1217,-753,-311,838,1120
452,-1252,-794,-328,725,1266
238,-1235,-731,-336,669,1325
161,-1250,-691,-374,709,1209
206,-1281,-683,-420,737,1073
251,-1283,-677,-454,702,1035
321,-1265,-650,-487,619,1094
352,-1215,-586,-527,546,1163
220,-1181,-553,-577,523,1176
48,-1186,-545,-634,577,1069
-9,-1237,-532,-702,653,897
-7,-1309,-557,-780,672,795
-16,-1406,-619,-850,606,809
-47,-1507,-696,-896,476,892
-102,-1539,-705,-897,323,987
-115,-1545,-670,-894,194,1039
-79,-1550,-666,-898,77,1061
-7,-1553,-671,-889,-65,1132
64,-1500,-621,-874,-239,1281
-122,-1470,-550,-903,-350,1402
-499,-1585,-606,-1017,-237,1240
-667,-1761,-761,-1096,-26,780
-475,-1897,-871,-1108,118,333
-315,-2003,-970,-1096,88,173
-286,-2082,-1036,-1069,-28,216
-291,-2134,-1066,-1010,-174,299
-302,-2189,-1116,-930,-320,376
-271,-2227,-1133,-844,-462,448
-310,-2185,-1051,-769,-609,540
-465,-2163,-985,-747,-723,597
-651,-2218,-1004,-780,-788,540
-818,-2278,-1060,-813,-781,336
-904,-2380,-1148,-855,-716,68
-810,-2535,-1307,-877,-695,-170
-588,-2610,-1407,-820,-773,-275
-497,-2640,-1467,-721,-865,-246
-495,-2599,-1420,-580,-965,-195
-485,-2452,-1265,-438,-1110,-150
-347,-2331,-1141,-391,-1191,-163
-211,-2300,-1121,-389,-1167,-269
-155,-2294,-1129,-350,-1101,-428
-83,-2237,-1093,-292,-1075,-559
-103,-2163,-1033,-255,-1116,-570
-207,-2132,-1071,-276,-1167,-526
-275,-2165,-1193,-286,-1231,-505
-349,-2165,-1294,-232,-1327,-483
-368,-2090,-1283,-156,-1441,-480
-247,-1973,-1184,-128,-1473,-574
-113,-1922,-1164,-156,-1423,-719
20,-1931,-1222,-167,-1414,-791
104,-1914,-1243,-146,-1495,-724
169,-1890,-1222,-138,-1574,-628
379,-1914,-1276,-145,-1531,-675
856,-2022,-1321,-144,-1320,-881
1444,-2143,-1360,-103,-1002,-1095
1717,-2267,-1367,-4,-704,-1108
1629,-2389,-1383,135,-593,-917
1382,-2359,-1295,315,-673,-562
1064,-2254,-1142,414,-806,-191
691,-2251,-1109,404,-856,43
339,-2281,-1145,397,-897,119
177,-2315,-1222,392,-935,95
182,-2367,-1357,396,-924,38
85,-2442,-1460,444,-882,-26
-123,-2421,-1479,546,-852,-152
-364,-2354,-1435,637,-733,-415
-454,-2334,-1439,677,-534,-797
-329,-2338,-1478,729,-406,-1125
-62,-2306,-1509,801,-411,-1255
186,-2252,-1466,867,-491,-1198
368,-2200,-1381,920,-544,-1076
501,-2133,-1268,981,-576,-970
572,-2054,-1147,1033,-595,-874
640,-2005,-1051,1052,-585,-788
656,-2001,-993,1052,-559,-699
607,-2001,-974,1038,-519,-622
447,-2032,-1013,1008,-470,-583
286,-2076,-1056,988,-383,-614
249,-2104,-1091,997,-326,-668
212,-2122,-1158,1031,-321,-675
193,-2149,-1212,1088,-316,-662
243,-2120,-1190,1176,-334,-646
307,-1988,-1048,1270,-372,-618
316,-1892,-929,1295,-378,-592
327,-1818,-861,1280,-383,-573
270,-1759,-808,1258,-390,-557
193,-1705,-771,1215,-380,-564
151,-1630,-701,1166,-378,-584
46,-1549,-646,1085,-393,-587
-85,-1513,-675,977,-403,-628
-136,-1566,-813,876,-396,-721
-26,-1614,-960,860,-432,-777
108,-1555,-948,910,-527,-736
150,-1435,-790,950,-600,-656
106,-1328,-640,940,-631,-622
82,-1279,-551,888,-663,-633
48,-1226,-491,820,-731,-637
4,-1167,-438,729,-793,-644
-75,-1160,-441,605,-829,-678
-167,-1179,-522,479,-856,-741
-190,-1237,-647,369,-848,-859
-84,-1289,-793,301,-850,-993
83,-1286,-820,290,-872,-1076
150,-1309,-828,276,-856,-1113
246,-1256,-769,301,-877,-1142
392,-1116,-616,312,-925,-1142
445,-1047,-548,235,-967,-1087
512,-1020,-546,144,-1020,-1040
596,-991,-569,57,-1082,-984
658,-960,-579,-36,-1118,-927
672,-979,-598,-140,-1079,-939
655,-1040,-671,-231,-982,-1035
719,-1101,-742,-285,-891,-1143
837,-1115,-729,-300,-868,-1167
947,-1068,-670,-319,-880,-1103
1051,-1040,-630,-374,-905,-1008
1144,-1071,-636,-451,-925,-905
1306,-1070,-635,-508,-929,-833
1468,-1025,-608,-570,-901,-748
1460,-1045,-624,-661,-863,-622
1455,-1080,-683,-741,-771,-573
1590,-1112,-694,-803,-651,-573
1681,-1180,-690,-875,-520,-535
1733,-1288,-722,-947,-395,-461
1852,-1369,-721,-986,-309,-346
1873,-1473,-735,-1016,-270,-144
1800,-1509,-733,-1030,-332,125
1683,-1501,-725,-1065,-358,324
1508,-1607,-860,-1147,-285,405
1414,-1709,-1021,-1190,-218,413
1397,-1760,-1137,-1192,-144,396
1394,-1889,-1287,-1192,-4,382
1368,-1976,-1346,-1114,53,425
1301,-1919,-1244,-998,64,491
1272,-1846,-1138,-940,124,508
1227,-1843,-1050,-922,211,513
1175,-1798,-986,-914,291,493
1209,-1747,-947,-924,348,455
1269,-1713,-936,-965,426,438
1251,-1745,-979,-1025,525,427
1253,-1842,-1118,-1065,576,423
1292,-1984,-1310,-1076,588,483
1239,-2126,-1427,-1015,591,611
1147,-2124,-1360,-878,567,703
1102,-2051,-1202,-775,586,708
1051,-2075,-1157,-759,684,649
1088,-2092,-1159,-741,790,532
1279,-2089,-1158,-724,898,413
1422,-2102,-1190,-711,1003,384
1463,-2096,-1225,-670,1057,432
1501,-2079,-1220,-617,1109,491
1530,-2078,-1206,-569,1161,564
1541,-2121,-1237,-531,1190,675
1448,-2187,-1260,-475,1197,811
1232,-2227,-1244,-388,1201,902
1016,-2232,-1222,-316,1230,895
892,-2255,-1244,-274,1282,805
940,-2302,-1304,-240,1357,682
1036,-2347,-1415,-177,1410,613
1014,-2356,-1461,-52,1421,636
977,-2296,-1386,82,1404,687
870,-2242,-1295,174,1398,726
776,-2215,-1245,229,1383,734
747,-2211,-1196,275,1390,703
675,-2201,-1179,327,1406,645
645,-2144,-1156,382,1398,586
661,-2085,-1132,410,1401,546
661,-2056,-1130,433,1401,503
733,-1964,-1114,476,1389,450
828,-1884,-1096,512,1374,436
898,-1827,-1106,549,1340,481
954,-1734,-1070,601,1295,558
907,-1631,-1016,634,1266,628
824,-1574,-994,638,1264,657
770,-1507,-943,625,1285,658
703,-1470,-927,578,1312,636
647,-1444,-931,532,1309,620
617,-1393,-930,489,1279,630
611,-1352,-921,440,1232,656
625,-1294,-893,401,1184,683
669,-1238,-867,354,1183,692
659,-1231,-898,316,1162,729
615,-1196,-882,300,1110,786
501,-1157,-833,276,1084,816
361,-1126,-782,230,1067,814
337,-1104,-727,153,1053,788
400,-1120,-705,47,1072,737
385,-1163,-736,-39,1076,707
348,-1169,-733,-92,1026,726
302,-1136,-688,-144,916,809
220,-1122,-647,-214,835,871
206,-1161,-691,-288,827,832
290,-1187,-729,-319,800,778
428,-1156,-664,-338,792,759
481,-1130,-603,-385,777,783
387,-1149,-593,-450,736,834
232,-1200,-606,-529,727,853
148,-1252,-596,-591,710,832
109,-1279,-597,-650,667,819
56,-1333,-645,-709,588,861
52,-1372,-678,-748,500,921
128,-1360,-668,-776,432,964
122,-1347,-663,-804,387,987
1,-1363,-690,-826,355,965
-111,-1357,-679,-854,356,874
-195,-1415,-697,-928,438,704
-202,-1564,-801,-1017,506,523
-91,-1704,-915,-1041,465,443
-47,-1781,-974,-1024,334,518
-132,-1816,-975,-995,176,656
-151,-1819,-932,-962,24,750
-164,-1808,-899,-941,-101,807
-272,-1798,-924,-935,-193,829
-322,-1808,-913,-939,-211,739
-297,-1854,-891,-965,-103,502
-166,-1988,-939,-996,34,208
54,-2135,-1019,-973,68,43
149,-2225,-1068,-911,-23,104
74,-2274,-1066,-854,-141,260
-76,-2314,-1041,-798,-238,365
-206,-2322,-1004,-753,-304,378
-277,-2372,-1046,-732,-341,332
-373,-2458,-1158,-689,-411,317
-510,-2504,-1229,-604,-548,347
-581,-2453,-1185,-513,-648,309
-584,-2423,-1119,-467,-618,120
-461,-2435,-1107,-464,-512,-184
-178,-2472,-1154,-453,-423,-450
88,-2489,-1197,-390,-458,-492
138,-2434,-1181,-308,-606,-309
-3,-2360,-1137,-250,-746,-86
-216,-2296,-1093,-204,-829,0
-273,-2227,-1061,-164,-859,-74
-206,-2169,-1047,-152,-869,-188
-120,-2182,-1088,-164,-825,-324
168,-2237,-1168,-167,-709,-526
420,-2252,-1226,-110,-654,-617
476,-2220,-1215,-32,-664,-532
390,-2165,-1168,24,-712,-396
255,-2092,-1121,67,-783,-284
148,-2055,-1119,84,-842,-205
20,-2046,-1135,96,-906,-150
-120,-2041,-1158,107,-971,-116
-288,-2050,-1204,115,-1046,-104
-458,-2030,-1217,135,-1122,-143
-564,-1999,-1223,136,-1142,-257
-479,-2043,-1265,116,-1135,-436
-10,-2136,-1330,106,-1045,-673
503,-2276,-1446,157,-892,-848
832,-2307,-1422,309,-836,-809
974,-2241,-1264,446,-853,-578
972,-2202,-1129,513,-922,-276
776,-2190,-1086,530,-965,-39
583,-2230,-1133,533,-921,20
472,-2254,-1149,566,-823,-39
416,-2285,-1165,586,-720,-124
407,-2304,-1191,624,-665,-167
428,-2292,-1162,670,-612,-173
366,-2296,-1162,703,-553,-175
297,-2267,-1158,763,-555,-171
225,-2207,-1114,815,-555,-167
116,-2156,-1086,841,-544,-201
36,-2109,-1089,858,-555,-268
-21,-2036,-1063,869,-587,-333
-123,-1998,-1046,853,-589,-425
-158,-1974,-1046,832,-609,-544
-65,-1915,-1013,816,-658,-631
56,-1927,-984,764,-637,-696
199,-2025,-1067,729,-609,-755
401,-2072,-1105,779,-624,-759
548,-2072,-1066,852,-605,-718
524,-2061,-1007,915,-564,-675
518,-2003,-925,967,-518,-662
477,-1939,-845,978,-490,-643
318,-1930,-848,946,-417,-664
277,-1948,-878,931,-320,-769
346,-1930,-843,950,-293,-813
352,-1904,-834,953,-334,-719
309,-1869,-818,948,-402,-580
242,-1807,-766,940,-444,-494
162,-1794,-778,913,-444,-475
181,-1749,-798,898,-466,-477
216,-1694,-758,884,-477,-476
205,-1677,-748,848,-439,-501
190,-1649,-706,830,-415,-544
191,-1617,-653,810,-420,-559
166,-1631,-680,775,-426,-541
99,-1636,-701,765,-466,-512
12,-1583,-653,776,-520,-510
-24,-1519,-607,758,-562,-533
-4,-1460,-583,707,-619,-540
10,-1415,-546,638,-663,-529
13,-1407,-581,559,-676,-541
119,-1396,-610,505,-698,-567
219,-1369,-596,460,-714,-577
243,-1353,-576,414,-701,-589
291,-1371,-570,368,-669,-617
365,-1383,-572,337,-674,-611
310,-1390,-570,309,-702,-550
248,-1397,-586,286,-739,-513
286,-1358,-545,275,-800,-486
288,-1288,-483,239,-849,-449
375,-1246,-465,157,-853,-456
593,-1249,-469,64,-800,-514
773,-1257,-489,-7,-704,-576
898,-1285,-488,-55,-622,-577
942,-1298,-476,-95,-594,-484
944,-1272,-414,-112,-633,-366
898,-1243,-379,-155,-660,-265
795,-1268,-414,-236,-675,-153
706,-1282,-466,-306,-729,-69
589,-1304,-527,-374,-732,-45
542,-1367,-581,-430,-676,-115
661,-1383,-582,-465,-597,-233
819,-1414,-577,-510,-499,-308
862,-1483,-588,-548,-457,-279
855,-1484,-531,-555,-481,-208
857,-1463,-459,-587,-505,-132
765,-1468,-462,-661,-524,-44
634,-1505,-519,-741,-553,17
580,-1552,-599,-820,-573,31
491,-1634,-723,-889,-566,8
428,-1767,-954,-928,-514,-82
611,-1824,-1069,-899,-436,-207
754,-1857,-1069,-841,-352,-281
860,-1831,-974,-785,-302,-310
1008,-1755,-809,-752,-305,-289
1102,-1708,-693,-789,-311,-213
1175,-1709,-666,-858,-300,-151
1290,-1703,-659,-923,-261,-125
1367,-1776,-732,-1005,-176,-107
1451,-1913,-917,-1065,-79,-83
1515,-2019,-1052,-1056,10,-48
1461,-2071,-1116,-1000,96,-13
1360,-2080,-1104,-941,192,8
1289,-2108,-1071,-904,306,3
1294,-2108,-1031,-863,366,9
1312,-2106,-983,-840,416,56
1274,-2166,-1012,-841,457,139
1243,-2182,-1049,-813,433,247
1153,-2186,-1067,-789,451,320
1042,-2265,-1150,-781,565,269
998,-2331,-1248,-733,678,146
1069,-2348,-1281,-660,767,46
1149,-2362,-1236,-591,850,21
1191,-2389,-1182,-519,905,53
1168,-2367,-1106,-433,888,150
1124,-2316,-1040,-378,855,264
1071,-2312,-1068,-356,857,330
1059,-2326,-1133,-316,897,338
1056,-2328,-1168,-250,955,323
1041,-2321,-1176,-185,1031,301
1061,-2363,-1227,-129,1097,284
1071,-2418,-1269,-52,1126,315
1013,-2426,-1221,43,1138,385
927,-2400,-1117,114,1160,434
810,-2386,-1079,148,1185,439
717,-2360,-1090,180,1176,427
688,-2334,-1093,208,1174,391
638,-2302,-1117,248,1194,332
579,-2251,-1116,306,1216,247
608,-2194,-1113,361,1245,156
753,-2166,-1142,417,1272,92
882,-2091,-1119,496,1283,91
873,-1993,-1044,559,1284,149
791,-1912,-965,583,1277,229
678,-1868,-908,573,1268,291
542,-1849,-909,548,1260,320
466,-1808,-899,538,1207,339
472,-1766,-868,516,1159,352
477,-1759,-890,488,1132,344
524,-1744,-928,501,1101,323
585,-1711,-943,532,1091,314
569,-1686,-895,571,1056,342
597,-1574,-792,593,1014,372
697,-1494,-712,548,1021,389
675,-1521,-737,482,1068,398
552,-1542,-794,449,1075,391
535,-1486,-774,430,1050,404
510,-1422,-731,382,1035,436
457,-1406,-730,326,1042,431
496,-1390,-733,285,1040,402
587,-1337,-703,252,1002,430
585,-1304,-665,208,944,518
542,-1291,-666,155,896,600
486,-1280,-674,124,834,673
427,-1232,-629,103,757,748
434,-1157,-535,55,729,773
396,-1161,-529,-30,786,720
390,-1198,-568,-99,829,641
422,-1204,-529,-141,840,602
394,-1209,-496,-201,852,593
367,-1257,-500,-269,847,593
405,-1293,-497,-325,802,638
432,-1320,-485,-385,770,694
399,-1384,-541,-450,751,733
332,-1431,-587,-480,697,784
235,-1433,-570,-498,654,826
87,-1469,-567,-549,692,774
3,-1534,-619,-599,733,649
27,-1526,-616,-617,697,580
48,-1506,-599,-661,643,579
101,-1537,-613,-722,602,578
223,-1568,-631,-754,572,560
286,-1607,-639,-753,513,603
275,-1630,-626,-740,419,732
108,-1623,-575,-739,284,906
-202,-1629,-557,-777,215,966
-417,-1651,-565,-831,234,828
-505,-1716,-612,-873,275,609
-535,-1796,-674,-902,299,415
-479,-1833,-690,-906,260,285
-431,-1833,-673,-916,140,269
-519,-1865,-698,-947,0,307
-543,-1922,-747,-967,-128,295
-371,-1976,-740,-961,-204,212
-166,-2029,-735,-947,-224,111
-45,-2044,-695,-918,-244,39
-29,-2027,-658,-917,-271,13
-32,-2085,-699,-945,-282,-22
6,-2176,-800,-952,-308,-65
9,-2265,-914,-927,-383,-48
-64,-2347,-1021,-885,-477,26
-207,-2408,-1101,-809,-579,103
-343,-2428,-1085,-716,-676,123
-355,-2418,-1044,-652,-704,33
-259,-2421,-1028,-605,-664,-155
-95,-2417,-1031,-549,-633,-318
50,-2340,-976,-485,-670,-354
79,-2257,-927,-446,-753,-291
38,-2217,-940,-424,-829,-219
21,-2182,-933,-391,-907,-179
-38,-2144,-951,-364,-973,-156
1,-2137,-971,-361,-983,-208
253,-2191,-1035,-372,-917,-342
492,-2311,-1136,-352,-817,-458
640,-2370,-1181,-266,-769,-475
701,-2324,-1121,-164,-790,-397
631,-2302,-1072,-116,-803,-276
532,-2328,-1094,-100,-796,-208
518,-2361,-1137,-60,-802,-178
459,-2387,-1166,-6,-821,-108
327,-2410,-1190,44,-849,-36
308,-2407,-1176,100,-850,-51
332,-2396,-1143,153,-792,-133
310,-2420,-1136,191,-694,-225
335,-2418,-1139,248,-680,-255
270,-2388,-1129,299,-719,-197
117,-2376,-1138,326,-727,-165
57,-2403,-1207,371,-721,-224
201,-2397,-1243,440,-726,-290
338,-2400,-1254,510,-673,-345
416,-2400,-1264,594,-608,-389
467,-2322,-1190,696,-614,-363
430,-2226,-1074,753,-636,-286
276,-2177,-1012,754,-614,-261
176,-2167,-1036,751,-567,-327
184,-2145,-1045,762,-556,-397
193,-2094,-1032,765,-567,-406
154,-2061,-1051,758,-605,-369
132,-2032,-1088,762,-656,-336
207,-2003,-1090,779,-664,-364
281,-2001,-1113,818,-610,-441
453,-1982,-1074,891,-560,-515
594,-1886,-949,957,-534,-517
558,-1829,-845,955,-500,-475
454,-1837,-828,904,-435,-480
424,-1863,-875,865,-389,-525
445,-1879,-917,844,-366,-540
410,-1901,-948,832,-369,-513
398,-1886,-933,841,-397,-479
398,-1830,-882,849,-433,-438
402,-1772,-812,827,-432,-412
383,-1761,-777,790,-404,-407
353,-1743,-756,766,-394,-413
339,-1723,-720,737,-362,-435
285,-1723,-712,698,-341,-446
229,-1728,-726,669,-351,-452
202,-1700,-717,644,-380,-449
114,-1680,-729,607,-400,-446
54,-1697,-788,575,-426,-467
76,-1677,-786,578,-472,-477
119,-1623,-731,577,-518,-462
160,-1592,-703,562,-546,-450
172,-1567,-682,551,-564,-444
183,-1519,-612,546,-578,-447
201,-1448,-526,511,-588,-455
192,-1418,-501,436,-578,-461
222,-1429,-521,356,-576,-494
302,-1460,-565,295,-556,-546
311,-1495,-637,255,-544,-569
301,-1538,-706,240,-550,-565
374,-1528,-688,246,-601,-525
389,-1493,-646,233,-657,-443
322,-1517,-659,194,-680,-377
331,-1487,-621,177,-706,-371
500,-1434,-532,144,-672,-412
586,-1473,-552,67,-603,-433
565,-1511,-592,27,-588,-415
574,-1474,-563,6,-584,-392
536,-1485,-574,-43,-575,-373
463,-1501,-623,-87,-571,-364
400,-1477,-633,-104,-597,-353
327,-1454,-668,-128,-622,-346
245,-1424,-701,-153,-640,-372
234,-1398,-711,-183,-648,-444
372,-1360,-693,-217,-639,-537
619,-1329,-666,-271,-606,-615
804,-1391,-697,-343,-550,-639
880,-1415,-711,-371,-559,-578
911,-1370,-636,-386,-600,-473
843,-1364,-570,-436,-604,-403
796,-1371,-566,-503,-597,-387
787,-1384,-590,-573,-597,-366
759,-1439,-667,-648,-610,-320
705,-1485,-756,-705,-648,-264
681,-1494,-832,-742,-659,-244
786,-1545,-865,-771,-573,-319
945,-1630,-908,-777,-457,-420
1105,-1652,-839,-739,-401,-444
1173,-1595,-697,-733,-383,-374
1160,-1557,-606,-794,-368,-291
1191,-1577,-623,-890,-346,-229
1211,-1643,-721,-979,-343,-137
1212,-1708,-841,-1035,-341,-36
1206,-1754,-937,-1040,-316,28
1239,-1760,-946,-1019,-255,54
1289,-1788,-910,-1001,-152,66
1313,-1779,-832,-977,-86,118
1315,-1759,-746,-974,-51,194
1327,-1798,-759,-1010,-32,265
1320,-1869,-834,-1050,-19,337
1229,-2004,-1023,-1099,38,389
1136,-2135,-1209,-1102,89,399
1010,-2197,-1298,-1056,187,338
871,-2244,-1375,-999,344,190
890,-2255,-1410,-915,466,20
1039,-2183,-1368,-832,532,-63
1167,-2173,-1356,-783,619,-82
1246,-2168,-1341,-718,662,-47
1291,-2092,-1255,-642,656,48
1316,-2052,-1181,-619,653,176
1282,-2056,-1139,-615,661,298
1178,-2067,-1112,-606,684,378
1110,-2122,-1160,-596,730,388
1069,-2208,-1246,-572,788,368
1070,-2268,-1337,-528,873,345
1048,-2307,-1394,-461,941,346
991,-2339,-1433,-375,983,359
988,-2369,-1473,-281,991,396
961,-2395,-1462,-179,991,458
868,-2394,-1417,-66,996,492
761,-2383,-1362,38,996,491
664,-2360,-1313,112,999,476
588,-2355,-1288,171,1000,434
540,-2356,-1291,232,1000,367
466,-2364,-1327,299,1001,293
479,-2318,-1305,383,996,207
566,-2223,-1218,455,993,136
632,-2139,-1162,483,1018,86
664,-2127,-1179,505,1034,60
686,-2078,-1178,556,1019,77
728,-1987,-1115,611,972,121
734,-1894,-1033,642,940,173
676,-1815,-993,648,937,204
646,-1758,-975,640,929,214
661,-1712,-978,625,912,217
698,-1689,-995,611,918,222
692,-1666,-994,613,923,233
657,-1603,-960,628,924,235
669,-1523,-890,618,935,226
658,-1487,-851,579,946,226
617,-1470,-853,542,922,251
654,-1417,-818,513,864,303
699,-1400,-808,454,861,348
688,-1435,-876,416,854,379
723,-1387,-855,426,808,426
771,-1324,-791,409,795,470
757,-1331,-804,368,799,502
718,-1296,-800,346,781,537
669,-1277,-788,301,785,569
614,-1301,-818,250,792,571
589,-1290,-831,224,781,572
546,-1276,-855,194,764,604
564,-1235,-843,166,743,633
671,-1171,-793,121,753,630
748,-1179,-812,49,794,622
778,-1177,-828,2,791,659
749,-1191,-830,-44,783,731
662,-1226,-822,-90,756,805
518,-1247,-819,-132,727,862
454,-1256,-805,-182,702,896
438,-1290,-767,-231,686,912
418,-1341,-786,-286,705,897
452,-1369,-789,-304,695,894
453,-1359,-761,-312,659,942
342,-1331,-724,-338,639,983
258,-1354,-717,-388,678,929
335,-1396,-750,-427,711,841
396,-1437,-773,-451,718,810
379,-1477,-790,-484,704,836
354,-1493,-771,-508,663,882
310,-1503,-753,-537,630,926
201,-1508,-738,-558,591,957
118,-1484,-709,-581,547,965
53,-1484,-702,-620,490,979
-64,-1459,-676,-651,409,997
-256,-1438,-657,-691,378,947
-343,-1423,-658,-733,363,825
-407,-1366,-614,-765,308,717
-518,-1333,-608,-830,288,589
-626,-1343,-614,-889,280,407
-568,-1386,-618,-961,292,187
-433,-1491,-666,-1033,210,91
-420,-1607,-744,-1104,-1,189
-487,-1730,-830,-1175,-226,346
-441,-1886,-951,-1223,-370,395
-355,-2044,-1056,-1225,-442,352
-414,-2168,-1122,-1201,-420,225
-400,-2304,-1184,-1172,-278,-65
-138,-2401,-1205,-1115,-142,-370
123,-2487,-1232,-1042,-135,-443
218,-2554,-1255,-961,-294,-238
146,-2592,-1233,-871,-498,60
-25,-2669,-1222,-783,-615,243
-71,-2691,-1188,-672,-699,294
-136,-2653,-1122,-559,-788,324
-281,-2632,-1074,-503,-795,294
-356,-2603,-1029,-455,-750,145
-359,-2596,-1043,-404,-693,-53
-214,-2605,-1094,-348,-675,-187
-35,-2575,-1041,-277,-717,-215
61,-2522,-982,-231,-760,-199
84,-2495,-991,-205,-805,-177
48,-2453,-1016,-167,-861,-147
-16,-2407,-1042,-131,-896,-128
-131,-2398,-1112,-89,-909,-153
-259,-2363,-1163,-6,-948,-213
-240,-2274,-1142,79,-964,-320
58,-2210,-1085,114,-888,-496
425,-2204,-1083,129,-765,-668
668,-2253,-1148,162,-690,-704
796,-2260,-1164,224,-690,-581
822,-2246,-1163,282,-725,-383
680,-2254,-1177,331,-764,-179
517,-2268,-1222,365,-775,-44
329,-2257,-1225,414,-793,25
126,-2246,-1238,454,-777,11
-7,-2258,-1292,490,-747,-65
-54,-2237,-1284,548,-754,-135
-19,-2205,-1217,594,-751,-210
72,-2191,-1179,615,-722,-303
179,-2195,-1164,640,-708,-370
252,-2195,-1167,664,-726,-376
289,-2168,-1148,689,-744,-364
232,-2148,-1146,699,-700,-400
204,-2149,-1169,708,-643,-488
233,-2130,-1191,726,-622,-553
226,-2117,-1217,753,-622,-572
241,-2127,-1236,793,-608,-593
368,-2075,-1172,860,-618,-596
429,-2009,-1066,901,-597,-564
429,-2005,-1031,904,-552,-547
468,-1987,-974,918,-524,-538
392,-1970,-945,907,-460,-534
300,-1982,-964,892,-392,-577
275,-1950,-958,894,-371,-606
247,-1906,-939,877,-386,-575
184,-1884,-955,850,-426,-521
98,-1875,-956,837,-461,-491
48,-1875,-947,830,-491,-492
39,-1874,-954,839,-523,-497
40,-1856,-958,862,-558,-498
52,-1787,-891,878,-560,-522
25,-1756,-861,861,-481,-622
27,-1758,-853,840,-379,-769
83,-1725,-816,831,-347,-858
142,-1701,-802,793,-355,-878
203,-1700,-812,753,-386,-855
205,-1687,-825,738,-449,-782
181,-1689,-868,731,-517,-700
193,-1683,-894,750,-562,-644
198,-1631,-837,778,-580,-613
218,-1558,-742,781,-570,-629
292,-1478,-642,752,-545,-669
312,-1448,-609,687,-493,-701
323,-1441,-637,620,-465,-722
347,-1426,-633,575,-474,-721
356,-1413,-618,524,-490,-692
364,-1388,-602,473,-546,-633
305,-1355,-570,413,-624,-543
207,-1336,-584,338,-706,-466
183,-1349,-656,269,-787,-421
274,-1360,-714,220,-835,-411
407,-1390,-750,188,-785,-461
497,-1431,-766,179,-661,-572
548,-1438,-733,209,-580,-678
641,-1373,-634,228,-565,-698
701,-1320,-546,186,-596,-623
665,-1332,-533,107,-630,-535
604,-1343,-563,43,-673,-478
583,-1331,-570,-17,-719,-421
595,-1350,-579,-83,-754,-365
663,-1363,-563,-141,-744,-353
670,-1394,-547,-187,-690,-398
651,-1412,-555,-217,-617,-479
785,-1402,-515,-239,-571,-526
855,-1400,-470,-286,-584,-464
855,-1406,-469,-350,-633,-347
838,-1437,-496,-409,-696,-219
737,-1464,-532,-452,-759,-103
651,-1438,-536,-485,-762,-89
662,-1416,-538,-536,-706,-163
682,-1441,-610,-609,-607,-263
804,-1487,-697,-660,-502,-367
1010,-1517,-705,-666,-438,-407
1074,-1504,-676,-667,-447,-329
1095,-1460,-616,-690,-462,-235
1146,-1456,-582,-754,-430,-174
1155,-1508,-646,-811,-386,-142
1196,-1545,-684,-843,-344,-106
1161,-1602,-707,-883,-309,-29
1055,-1632,-759,-921,-282,30
1039,-1653,-815,-960,-254,40
1064,-1715,-931,-1003,-205,36
1113,-1804,-1060,-1009,-138,19
1160,-1830,-1122,-957,-92,25
1226,-1806,-1094,-905,-48,66
1251,-1819,-1057,-886,1,136
1174,-1856,-999,-878,44,206
1083,-1848,-913,-871,89,218
1021,-1825,-862,-900,144,190
987,-1853,-911,-961,210,148
965,-1876,-993,-1004,248,118
939,-1942,-1119,-1033,293,108
916,-2034,-1228,-1008,292,130
950,-2038,-1290,-940,256,163
969,-2015,-1285,-876,271,202
918,-2049,-1245,-834,343,234
848,-2061,-1172,-776,388,232
845,-2022,-1054,-729,393,215
866,-2046,-1027,-746,418,206
891,-2110,-1075,-765,447,197
932,-2166,-1118,-749,484,173
968,-2218,-1179,-717,519,154
978,-2261,-1264,-668,553,133
1071,-2297,-1310,-599,624,78
1229,-2316,-1330,-515,726,11
1318,-2294,-1325,-413,803,8
1277,-2264,-1266,-325,848,85
1214,-2207,-1188,-267,873,161
1153,-2201,-1148,-237,913,198
1131,-2235,-1169,-208,945,212
1109,-2249,-1199,-160,965,228
1048,-2257,-1236,-118,998,244
1006,-2262,-1262,-65,1033,238
1015,-2230,-1253,-2,1079,214
977,-2215,-1264,56,1123,209
908,-2209,-1280,117,1136,233
832,-2184,-1260,188,1116,268
717,-2159,-1252,254,1090,297
644,-2142,-1236,319,1067,286
680,-2110,-1214,367,1066,241
702,-2087,-1229,407,1077,194
734,-2066,-1223,450,1120,135
801,-2034,-1211,491,1165,89
814,-2054,-1220,533,1180,106
802,-2010,-1220,596,1161,163
751,-1952,-1190,660,1134,212
704,-1895,-1153,704,1125,226
715,-1830,-1131,753,1108,214
757,-1788,-1058,794,1096,199
837,-1726,-999,797,1109,184
932,-1696,-910,803,1135,198
913,-1555,-858,798,1130,266
806,-1587,-844,733,1105,399
631,-1653,-876,671,1074,468
514,-1623,-878,673,1060,419
435,-1630,-856,686,986,330
467,-1541,-856,673,901,249
553,-1499,-848,611,919,260
635,-1532,-863,540,916,325
802,-1444,-803,537,941,272
845,-1404,-809,504,1019,251
807,-1408,-827,477,1014,351
772,-1290,-706,496,927,462
711,-1191,-604,440,878,563
589,-1194,-593,346,839,640
513,-1188,-568,265,794,667
567,-1186,-579,167,790,639
631,-1212,-611,81,808,620
627,-1241,-636,28,826,623
638,-1230,-626,-5,811,652
608,-1189,-578,-38,796,691
602,-1168,-530,-101,804,691
643,-1151,-475,-175,817,672
591,-1152,-455,-266,828,688
485,-1188,-476,-362,835,707
434,-1245,-523,-445,813,707
368,-1298,-570,-502,760,734
326,-1310,-601,-547,698,773
331,-1315,-596,-593,644,799
323,-1340,-625,-642,615,797
383,-1339,-631,-673,624,763
424,-1340,-615,-712,665,724
348,-1404,-654,-756,697,699
246,-1458,-656,-761,662,695
162,-1489,-627,-771,598,720
49,-1520,-614,-805,511,751
-69,-1583,-643,-850,408,767
-188,-1652,-712,-890,300,765
-337,-1729,-762,-910,223,712
-372,-1788,-758,-903,201,556
-311,-1809,-711,-877,196,354
-226,-1797,-644,-863,164,192
-107,-1785,-600,-876,126,98
-75,-1803,-591,-906,55,87
-117,-1837,-598,-935,-53,121
-150,-1856,-597,-967,-172,151
-257,-1907,-660,-1021,-262,153
-365,-2007,-783,-1067,-306,89
-390,-2111,-906,-1063,-376,3
-336,-2160,-974,-1012,-454,-84
-107,-2183,-973,-976,-452,-236
176,-2213,-1003,-945,-415,-397
394,-2240,-1029,-883,-401,-446
613,-2234,-1008,-822,-442,-363
651,-2245,-976,-772,-510,-175
457,-2232,-979,-733,-568,-9
298,-2192,-972,-696,-598,53
168,-2171,-965,-670,-609,67
-21,-2150,-1003,-657,-634,62
-161,-2122,-1015,-621,-718,12
32,-2097,-967,-618,-727,-125
357,-2157,-997,-637,-644,-302
575,-2270,-1072,-601,-615,-358
688,-2313,-1083,-505,-679,-235
683,-2288,-1010,-427,-739,-57
493,-2361,-1005,-398,-745,42
367,-2426,-1046,-346,-752,24
331,-2473,-1086,-289,-760,-27
221,-2559,-1192,-248,-753,-56
129,-2612,-1258,-161,-776,-100
43,-2587,-1247,-56,-832,-144
-57,-2581,-1291,21,-878,-190
-144,-2540,-1297,108,-954,-231
-266,-2447,-1254,195,-1016,-291
-304,-2372,-1218,248,-1051,-416
11,-2314,-1182,268,-1012,-633
389,-2300,-1216,282,-939,-816
642,-2304,-1274,332,-909,-840
748,-2239,-1261,409,-933,-720
673,-2167,-1203,468,-977,-547
520,-2133,-1172,510,-985,-449
418,-2122,-1164,562,-1027,-405
369,-2086,-1110,603,-1080,-354
310,-2094,-1089,595,-1050,-369
444,-2164,-1144,583,-939,-515
749,-2191,-1156,617,-829,-657
891,-2162,-1143,674,-763,-665
981,-2174,-1175,706,-684,-614
1139,-2174,-1175,778,-676,-486
1092,-2103,-1104,862,-704,-286
1030,-2055,-1060,883,-668,-173
1016,-2039,-1027,896,-637,-108
961,-2050,-1033,897,-599,-55
834,-2071,-1049,895,-549,-36
734,-2111,-1103,887,-462,-88
665,-2175,-1205,890,-395,-151
613,-2205,-1285,929,-374,-174
589,-2175,-1274,989,-345,-201
566,-2144,-1259,1036,-294,-254
576,-2076,-1202,1085,-265,-289
531,-2023,-1122,1116,-269,-261
418,-1955,-1046,1125,-306,-217
328,-1890,-978,1114,-330,-222
275,-1853,-937,1079,-335,-265
274,-1846,-910,1047,-304,-356
291,-1837,-878,1028,-275,-441
320,-1847,-867,1015,-272,-480
272,-1840,-861,1023,-296,-475
234,-1797,-827,1043,-325,-485
303,-1738,-779,1056,-326,-518
339,-1696,-729,1050,-285,-550
275,-1673,-724,1038,-270,-569
315,-1599,-660,1029,-305,-567
326,-1530,-587,988,-348,-524
279,-1510,-552,923,-354,-513
287,-1495,-544,868,-364,-542
313,-1499,-525,818,-380,-545
300,-1496,-519,770,-412,-514
292,-1488,-533,729,-468,-467
315,-1453,-539,678,-489,-430
279,-1438,-578,622,-473,-428
218,-1439,-627,586,-468,-459
253,-1390,-633,565,-479,-495
338,-1334,-603,528,-463,-519
321,-1322,-606,479,-422,-540
338,-1285,-566,451,-413,-572
391,-1245,-496,408,-460,-556
409,-1244,-472,327,-517,-493
352,-1285,-508,249,-551,-444
281,-1291,-520,211,-612,-426
300,-1251,-503,174,-653,-426
293,-1256,-539,111,-656,-420
240,-1284,-589,61,-645,-449
279,-1236,-569,34,-638,-526
386,-1193,-526,-22,-624,-603
468,-1206,-556,-107,-625,-630
562,-1215,-569,-164,-656,-623
639,-1203,-557,-209,-693,-580
663,-1211,-548,-253,-754,-504
713,-1205,-513,-293,-811,-431
795,-1175,-436,-348,-824,-393
843,-1205,-404,-434,-774,-403
874,-1259,-461,-516,-735,-423
868,-1304,-497,-574,-729,-405
853,-1347,-533,-641,-709,-379
834,-1380,-557,-691,-706,-376
790,-1400,-587,-736,-727,-351
762,-1419,-642,-787,-759,-314
801,-1440,-684,-831,-783,-302
935,-1479,-728,-881,-753,-341
1081,-1507,-766,-902,-699,-386
1168,-1506,-786,-910,-639,-407
1215,-1501,-785,-927,-584,-395
1224,-1459,-742,-942,-545,-375
1205,-1444,-745,-986,-491,-378
1222,-1464,-797,-1030,-462,-365
1271,-1510,-832,-1069,-457,-297
1335,-1594,-882,-1117,-478,-183
1339,-1649,-934,-1136,-494,-78
1381,-1689,-944,-1145,-450,-36
1422,-1750,-956,-1164,-371,-27
1397,-1811,-1042,-1169,-280,-50
1484,-1839,-1092,-1152,-171,-111
