ax,ay,az,gx,gy,gz
117,-549,158,64,-363,113
87,-642,59,-91,-333,127
68,-747,-33,-193,-312,161
26,-909,-209,-246,-269,195
16,-1062,-373,-207,-252,223
73,-1091,-410,-80,-318,252
161,-997,-305,58,-393,313
244,-853,-112,99,-406,412
250,-757,43,9,-354,529
153,-772,112,-173,-275,624
33,-847,95,-368,-223,654
-53,-918,33,-525,-238,623
-126,-997,-55,-640,-252,568
-111,-1084,-159,-716,-237,524
-29,-1159,-260,-752,-184,476
55,-1213,-345,-745,-122,437
92,-1230,-347,-712,-65,429
67,-1247,-312,-716,-3,460
98,-1252,-266,-741,47,507
136,-1258,-261,-794,101,560
74,-1343,-305,-893,146,650
-88,-1474,-374,-977,149,742
-291,-1603,-499,-1019,122,794
-384,-1648,-610,-1023,76,787
-336,-1643,-659,-1006,39,738
-183,-1621,-643,-1009,52,673
-169,-1680,-558,-1098,248,552
-197,-1878,-585,-1271,533,364
-226,-2117,-808,-1417,632,250
-267,-2320,-930,-1437,526,308
-252,-2414,-968,-1386,385,422
-215,-2398,-997,-1320,259,526
-268,-2384,-963,-1268,144,606
-311,-2354,-855,-1246,99,623
-327,-2282,-745,-1251,58,588
-431,-2345,-657,-1328,27,541
-586,-2593,-790,-1508,60,446
-641,-3001,-1118,-1665,116,311
-524,-3468,-1506,-1689,159,193
-239,-3754,-1850,-1545,150,133
25,-3885,-1986,-1249,124,190
76,-3934,-1881,-943,157,323
21,-3858,-1674,-694,181,427
-79,-3710,-1384,-473,140,467
-206,-3591,-1172,-350,129,416
-271,-3559,-1168,-313,140,340
-239,-3565,-1187,-277,119,316
-218,-3560,-1160,-228,103,339
-268,-3565,-1189,-172,79,359
-312,-3576,-1243,-73,58,342
-298,-3506,-1203,63,81,262
-249,-3413,-1126,184,151,137
-236,-3377,-1085,281,203,7
-248,-3396,-1114,390,225,-105
-211,-3349,-1124,524,185,-183
-201,-3274,-1065,622,170,-247
-314,-3298,-1067,635,249,-333
-429,-3360,-1167,632,314,-447
-536,-3398,-1256,691,297,-552
-589,-3343,-1281,790,266,-652
-562,-3199,-1222,888,234,-762
-489,-3078,-1175,936,243,-873
-389,-2993,-1175,936,289,-919
-323,-2898,-1147,942,272,-857
-269,-2772,-1138,949,224,-743
-200,-2658,-1161,930,200,-635
-204,-2533,-1109,885,184,-528
-320,-2451,-1112,841,178,-462
-366,-2362,-1113,866,150,-492
-324,-2207,-1057,951,120,-589
-277,-2029,-991,1041,95,-685
-196,-1847,-893,1104,90,-751
-135,-1729,-820,1109,136,-797
-96,-1670,-810,1096,170,-821
-76,-1633,-829,1115,170,-805
-2,-1550,-799,1163,141,-734
85,-1409,-681,1218,98,-617
90,-1313,-578,1233,140,-510
24,-1259,-486,1243,175,-442
-21,-1146,-352,1298,154,-428
-73,-1005,-164,1343,108,-457
-2,-822,-18,1290,38,-527
51,-721,78,1119,51,-587
60,-716,104,875,89,-621
86,-748,33,626,121,-641
87,-847,-113,449,131,-623
101,-939,-271,365,94,-557
150,-996,-395,378,10,-434
212,-976,-404,451,-109,-269
227,-934,-355,538,-203,-122
217,-852,-236,647,-306,-10
192,-685,-21,736,-411,75
154,-508,188,709,-464,142
135,-410,338,562,-508,211
132,-389,433,356,-526,276
116,-450,396,114,-479,288
136,-583,226,-116,-408,226
168,-768,14,-236,-302,114
184,-889,-136,-243,-215,25
187,-927,-213,-206,-159,-7
147,-953,-247,-164,-116,1
94,-990,-296,-124,-91,29
139,-949,-249,-76,-94,74
156,-855,-108,-70,-131,150
129,-801,-17,-145,-130,203
159,-798,25,-272,-89,222
207,-856,26,-425,-71,252
188,-1020,-100,-573,-21,285
218,-1192,-275,-652,12,334
299,-1284,-372,-616,-50,428
304,-1324,-428,-516,-120,567
237,-1351,-465,-398,-155,708
131,-1334,-422,-272,-221,844
-39,-1325,-373,-193,-266,929
-206,-1374,-395,-187,-232,907
-363,-1408,-358,-226,-179,802
-448,-1437,-304,-338,-48,586
-427,-1503,-312,-562,211,273
-387,-1648,-419,-812,462,-60
-273,-1737,-534,-963,563,-329
-134,-1737,-567,-997,533,-457
-21,-1743,-576,-987,493,-463
141,-1751,-598,-949,416,-351
308,-1773,-598,-857,246,-67
409,-1775,-502,-763,-9,375
388,-1762,-404,-747,-297,835
288,-1756,-366,-841,-452,1153
147,-1788,-348,-1023,-390,1242
-112,-1928,-419,-1270,-158,1098
-447,-2214,-675,-1483,108,767
-519,-2468,-932,-1558,245,424
-425,-2567,-1056,-1520,207,251
-383,-2583,-1106,-1456,113,247
-283,-2531,-1039,-1410,57,306
-177,-2501,-947,-1389,34,369
-84,-2475,-943,-1377,-10,442
36,-2453,-926,-1372,-48,526
30,-2536,-980,-1424,-40,592
-101,-2719,-1116,-1491,-23,586
-284,-2969,-1301,-1505,24,481
-307,-3178,-1499,-1424,57,327
-197,-3271,-1564,-1247,57,224
-119,-3363,-1526,-1077,123,209
-136,-3464,-1555,-950,175,279
-192,-3495,-1547,-789,113,407
-241,-3434,-1465,-626,41,526
-315,-3386,-1386,-529,15,589
-393,-3359,-1334,-465,-1,558
-418,-3334,-1299,-393,22,412
-363,-3349,-1318,-313,87,197
-245,-3375,-1357,-206,140,6
-159,-3410,-1394,-67,175,-114
-101,-3408,-1412,93,190,-160
-82,-3367,-1365,272,174,-160
-90,-3324,-1279,425,182,-174
-120,-3295,-1254,530,199,-189
-183,-3270,-1242,619,180,-173
-253,-3202,-1207,695,148,-169
-291,-3137,-1191,725,161,-205
-333,-3099,-1206,742,177,-277
-325,-3015,-1189,782,184,-387
-275,-2933,-1182,812,217,-496
-209,-2886,-1209,848,237,-543
-159,-2802,-1182,914,191,-520
-189,-2704,-1135,970,139,-471
-292,-2656,-1138,998,110,-429
-377,-2590,-1118,1020,33,-400
-365,-2469,-1054,1016,-51,-386
-264,-2367,-961,939,-70,-383
-175,-2305,-957,798,-53,-352
-184,-2316,-1036,684,-88,-258
-194,-2353,-1190,662,-124,-195
-129,-2267,-1227,747,-143,-196
-127,-2129,-1080,845,-130,-234
-157,-2010,-1031,895,-95,-328
-115,-1922,-1006,959,-105,-398
-100,-1821,-920,1037,-144,-377
-139,-1727,-883,1076,-161,-338
-105,-1636,-836,1094,-145,-323
-56,-1530,-752,1117,-127,-311
-23,-1391,-656,1152,-129,-312
-10,-1242,-461,1185,-123,-343
-1,-1118,-306,1162,-78,-432
36,-1055,-266,1101,-13,-547
104,-1001,-228,1044,13,-609
146,-959,-180,980,22,-619
110,-953,-162,918,12,-603
38,-960,-190,876,-32,-576
20,-971,-226,858,-105,-508
0,-966,-221,869,-205,-377
-61,-910,-174,876,-323,-248
-122,-865,-133,853,-401,-178
-97,-793,-65,808,-439,-168
-52,-726,0,710,-407,-214
-10,-727,-19,557,-296,-302
47,-777,-48,395,-178,-375
133,-804,-83,267,-89,-415
194,-813,-106,177,-37,-419
203,-842,-121,120,-37,-381
195,-880,-156,102,-38,-322
221,-860,-161,109,-51,-241
203,-792,-102,104,-144,-94
94,-762,-31,35,-249,74
-1,-811,-48,-82,-319,188
-22,-904,-114,-176,-410,248
-43,-1008,-186,-219,-521,279
42,-1023,-218,-223,-625,294
299,-959,-185,-251,-616,297
508,-980,-178,-356,-420,281
460,-1068,-231,-474,-147,240
299,-1166,-279,-547,65,163
206,-1256,-324,-577,173,91
218,-1293,-332,-579,193,103
206,-1312,-289,-587,120,222
134,-1363,-283,-642,21,392
42,-1475,-372,-712,-101,570
-9,-1581,-465,-731,-239,712
55,-1527,-470,-703,-284,741
167,-1406,-422,-742,-76,649
31,-1519,-450,-941,341,465
-152,-1719,-585,-1128,695,194
-83,-1813,-677,-1113,841,-33
91,-1834,-663,-1002,780,-21
289,-1759,-598,-879,578,259
392,-1701,-534,-761,306,685
295,-1602,-445,-653,44,1093
46,-1512,-336,-632,-108,1342
-260,-1548,-297,-742,-101,1378
-501,-1676,-373,-916,-36,1221
-650,-1857,-508,-1059,60,909
-642,-2021,-660,-1186,214,518
-568,-2185,-827,-1299,354,162
-482,-2314,-956,-1377,418,-74
-394,-2387,-1050,-1390,398,-196
-203,-2405,-1076,-1346,382,-244
-35,-2455,-1022,-1274,365,-211
21,-2573,-1066,-1202,307,-114
8,-2739,-1160,-1113,153,53
-77,-2874,-1276,-1029,-31,267
-195,-2944,-1333,-990,-142,448
-313,-2984,-1313,-966,-157,494
-354,-2950,-1254,-913,-97,350
-283,-2836,-1203,-852,-18,130
-172,-2702,-1157,-802,0,11
-65,-2537,-1094,-755,-21,19
-4,-2333,-1012,-703,-73,75
27,-2199,-964,-632,-118,135
40,-2192,-992,-524,-154,201
94,-2211,-973,-393,-222,295
145,-2213,-865,-358,-250,407
84,-2361,-871,-480,-144,444
-132,-2751,-1142,-692,30,358
-358,-3176,-1502,-793,109,211
-404,-3410,-1764,-694,103,63
-334,-3511,-1917,-470,101,-54
-216,-3529,-1916,-159,133,-104
-131,-3407,-1766,163,85,-67
-108,-3169,-1479,412,0,6
-133,-3000,-1244,507,-2,24
-119,-2983,-1195,498,34,-2
-111,-3050,-1247,498,31,-13
-127,-3099,-1320,522,-4,-4
-134,-3116,-1384,563,-31,-7
-167,-3119,-1411,617,-11,-59
-193,-3129,-1428,693,46,-167
-112,-3069,-1402,794,83,-294
-30,-3020,-1372,883,104,-362
-14,-2989,-1396,960,95,-334
-19,-2927,-1410,1067,27,-243
-17,-2834,-1385,1180,-28,-145
-59,-2709,-1273,1273,-37,-90
-165,-2559,-1121,1336,-13,-119
-255,-2435,-1016,1333,30,-224
-299,-2399,-1032,1260,66,-314
-295,-2376,-1076,1212,42,-338
-281,-2332,-1063,1208,8,-337
-229,-2239,-1056,1235,-6,-351
-189,-2146,-1007,1275,-25,-350
-252,-2068,-956,1312,-45,-347
-361,-2009,-962,1341,-66,-362
-392,-1945,-984,1381,-107,-379
-348,-1867,-953,1426,-147,-379
-287,-1756,-855,1461,-161,-388
-193,-1638,-772,1474,-107,-423
-114,-1553,-656,1482,-32,-460
-95,-1479,-531,1503,24,-490
-128,-1394,-429,1522,29,-500
-185,-1313,-324,1517,-30,-471
-274,-1245,-267,1470,-131,-409
-302,-1187,-220,1380,-238,-327
-282,-1134,-177,1280,-343,-256
-264,-1075,-146,1197,-436,-227
-205,-1006,-106,1124,-491,-247
-90,-919,-39,1046,-487,-300
22,-832,24,950,-394,-370
66,-836,37,862,-264,-407
70,-788,77,872,-179,-318
154,-695,128,767,-145,-300
216,-672,179,601,-56,-369
190,-673,202,430,-6,-414
139,-670,202,301,5,-418
110,-672,195,195,-9,-391
85,-661,200,92,-58,-345
108,-665,179,-16,-104,-311
138,-693,126,-107,-91,-290
181,-733,80,-147,-87,-272
239,-723,93,-159,-111,-253
324,-708,116,-184,-104,-239
362,-725,128,-224,-62,-240
445,-719,128,-252,-80,-219
424,-698,130,-302,-110,-108
308,-746,95,-399,-185,102
191,-850,30,-524,-290,343
126,-965,-38,-630,-387,545
73,-1092,-127,-685,-486,671
-22,-1263,-229,-682,-565,712
-146,-1457,-379,-594,-623,650
-165,-1541,-460,-414,-726,538
-16,-1465,-423,-204,-874,419
300,-1265,-322,-112,-855,347
544,-1146,-230,-293,-526,363
466,-1172,-236,-624,-76,447
141,-1316,-293,-917,266,528
-80,-1405,-323,-1057,332,535
-239,-1448,-345,-1069,245,521
-351,-1506,-404,-1065,132,549
-396,-1625,-547,-1054,18,581
-455,-1744,-656,-993,-90,589
-439,-1758,-642,-905,-193,554
-237,-1624,-548,-860,-247,472
50,-1518,-462,-887,-240,419
106,-1553,-456,-1002,-84,420
14,-1735,-578,-1142,150,457
-13,-1964,-773,-1197,207,547
-115,-2229,-991,-1130,124,754
-186,-2366,-1106,-987,-30,1008
-240,-2363,-1072,-844,-142,1222
-354,-2283,-907,-792,-146,1265
-466,-2172,-718,-869,-32,1054
-567,-2166,-623,-1042,150,680
-519,-2258,-676,-1251,302,308
-378,-2447,-811,-1397,374,74
-225,-2673,-923,-1438,405,30
-106,-2910,-1039,-1404,406,186
-87,-3131,-1166,-1285,284,512
-128,-3195,-1217,-1068,7,924
-258,-3092,-1119,-832,-242,1271
-455,-2960,-996,-709,-291,1386
-645,-2896,-930,-698,-197,1236
-749,-2898,-902,-724,-86,932
-738,-2888,-882,-748,29,600
-683,-2956,-856,-797,156,311
-557,-3126,-957,-855,244,105
-429,-3304,-1098,-832,227,40
-409,-3414,-1180,-704,129,107
-424,-3415,-1207,-532,27,212
-487,-3403,-1186,-370,-37,273
-544,-3412,-1182,-247,-56,226
-517,-3445,-1199,-140,-9,79
-466,-3489,-1217,-36,80,-91
-451,-3541,-1260,66,161,-233
-416,-3572,-1308,199,203,-337
-395,-3572,-1326,353,229,-401
-441,-3547,-1317,502,251,-434
-501,-3492,-1300,629,259,-468
-565,-3471,-1328,738,260,-512
-582,-3396,-1344,852,220,-520
-553,-3225,-1287,963,143,-490
-528,-3043,-1190,1043,89,-470
-497,-2892,-1141,1083,90,-491
-434,-2730,-1049,1106,182,-534
-398,-2633,-987,1090,237,-559
-348,-2548,-1001,1048,264,-576
-340,-2484,-995,1019,306,-527
-482,-2437,-986,949,273,-368
-650,-2396,-1038,862,149,-217
-637,-2337,-1086,853,-1,-191
-510,-2182,-991,928,-116,-251
-484,-1984,-857,1013,-162,-396
-495,-1868,-855,1076,-144,-631
-450,-1822,-885,1135,-87,-828
-381,-1812,-899,1184,3,-919
-271,-1763,-911,1244,56,-913
-147,-1701,-885,1282,43,-800
-64,-1553,-781,1274,44,-584
-108,-1420,-683,1219,39,-306
-186,-1332,-587,1151,-51,-94
-140,-1216,-453,1127,-163,-43
-30,-1062,-300,1151,-200,-142
5,-911,-138,1180,-173,-301
-36,-804,-18,1142,-112,-482
-92,-724,66,1050,-60,-666
-90,-674,95,914,-27,-806
-60,-675,94,747,19,-855
-86,-728,49,572,20,-839
-177,-897,-91,423,-26,-844
-140,-1088,-311,371,-95,-848
42,-1183,-479,419,-211,-749
213,-1205,-531,510,-283,-563
252,-1229,-543,595,-232,-384
220,-1223,-486,720,-176,-305
216,-1064,-308,890,-178,-322
264,-826,-86,971,-164,-327
303,-655,101,908,-118,-242
263,-549,257,750,-79,-132
194,-504,355,558,-51,-80
132,-518,350,373,21,-87
72,-611,218,221,56,-83
1,-800,-1,149,-62,-47
-32,-992,-238,220,-187,12
-67,-1020,-273,422,-370,101
-51,-779,-30,612,-579,149
149,-434,315,614,-548,73
452,-160,677,381,-184,-63
379,-215,858,-98,336,-164
22,-538,694,-659,593,-208
-148,-843,356,-1011,452,-206
-17,-1081,53,-1132,158,-105
195,-1235,-162,-1168,-137,152
295,-1362,-369,-1200,-327,521
275,-1466,-538,-1178,-415,860
225,-1469,-592,-1061,-425,1060
244,-1339,-435,-923,-303,1084
175,-1223,-197,-942,-86,977
-51,-1315,-161,-1124,162,771
-239,-1582,-329,-1348,317,520
-233,-1818,-539,-1498,312,357
-133,-1958,-713,-1571,222,374
-103,-2010,-818,-1604,158,482
-112,-2054,-896,-1594,191,510
-72,-2101,-933,-1506,290,395
-6,-2140,-910,-1332,404,228
107,-2147,-824,-1166,455,170
164,-2173,-710,-1093,405,286
54,-2263,-642,-1136,303,482
-98,-2423,-758,-1244,218,629
-210,-2585,-941,-1303,126,687
-283,-2642,-1046,-1283,88,623
-335,-2611,-1102,-1235,144,428
-286,-2532,-1102,-1178,222,191
-176,-2437,-975,-1105,262,28
8,-2392,-788,-1051,300,-10
216,-2418,-668,-1041,287,141
201,-2545,-753,-1067,133,521
-69,-2728,-1017,-1068,-106,1010
-480,-2813,-1161,-1004,-319,1365
-821,-2765,-1116,-948,-406,1401
-985,-2720,-1088,-971,-298,1117
-1010,-2737,-1099,-994,-115,631
-827,-2765,-1107,-974,43,142
-472,-2798,-1036,-932,115,-180
-144,-2857,-1007,-908,127,-287
49,-3022,-1095,-893,120,-228
97,-3250,-1290,-857,100,-77
42,-3453,-1489,-753,69,112
-79,-3545,-1606,-549,39,250
-210,-3575,-1585,-273,36,276
-250,-3549,-1506,-15,87,187
-217,-3498,-1399,177,153,77
-215,-3449,-1325,322,191,21
-221,-3379,-1265,442,193,21
-258,-3318,-1198,532,203,36
-363,-3312,-1198,589,227,11
-434,-3273,-1180,669,220,-52
-496,-3216,-1148,742,198,-126
-532,-3176,-1139,774,185,-213
-558,-3182,-1173,803,168,-316
-562,-3194,-1238,858,136,-432
-510,-3164,-1300,920,111,-523
-401,-3080,-1358,979,78,-555
-295,-2984,-1314,1050,74,-557
-251,-2892,-1294,1114,120,-579
-286,-2797,-1229,1215,114,-618
-301,-2616,-1096,1344,63,-683
-262,-2429,-937,1408,39,-731
-231,-2288,-844,1372,0,-715
-181,-2174,-752,1289,-55,-646
-161,-2059,-636,1165,-96,-556
-227,-1993,-654,987,-148,-470
-328,-2028,-776,827,-211,-386
-444,-2177,-1016,756,-216,-383
-466,-2343,-1354,837,-151,-484
-213,-2329,-1467,1073,-108,-569
-64,-2174,-1336,1350,-47,-568
14,-1921,-1138,1598,-10,-572
60,-1648,-867,1792,32,-615
43,-1399,-583,1919,85,-663
-48,-1216,-281,1949,145,-720
-145,-1084,-85,1854,202,-804
-134,-1022,-29,1676,186,-890
-5,-982,-37,1465,120,-917
102,-952,-50,1249,97,-862
128,-955,-79,1057,80,-736
87,-952,-115,943,11,-597
126,-890,-106,913,-81,-499
193,-792,-36,916,-128,-413
137,-715,35,889,-138,-318
57,-631,113,828,-152,-256
1,-590,190,718,-154,-247
2,-591,193,556,-147,-259
109,-612,164,379,-141,-252
203,-659,145,212,-132,-200
190,-710,108,71,-147,-120
171,-769,56,-16,-191,-56
185,-800,32,-45,-259,3
208,-767,35,-48,-321,77
208,-780,10,-57,-331,157
225,-744,51,-46,-352,228
241,-633,148,-46,-383,259
259,-586,218,-112,-353,231
309,-587,198,-227,-265,171
348,-613,172,-352,-194,143
363,-649,161,-485,-162,165
416,-695,136,-633,-136,212
509,-721,119,-777,-104,269
499,-809,59,-914,-52,314
370,-1003,-110,-1018,29,306
299,-1160,-280,-1027,89,252
250,-1271,-404,-949,74,238
141,-1323,-442,-846,26,287
-2,-1373,-429,-786,-57,370
-104,-1490,-462,-763,-186,437
-71,-1608,-513,-712,-308,464
366,-1524,-513,-635,-374,486
872,-1493,-537,-628,-246,630
1010,-1613,-633,-759,67,927
740,-1762,-726,-806,306,1182
374,-1751,-632,-624,349,1261
16,-1562,-303,-431,401,1182
-279,-1394,-97,-502,528,998
-586,-1522,-87,-794,566,830
-863,-1798,-238,-1109,523,693
-918,-2088,-585,-1334,414,564
-855,-2347,-874,-1382,228,484
-735,-2423,-998,-1271,14,404
-466,-2251,-919,-1087,-106,276
-128,-1963,-719,-938,-79,147
56,-1722,-573,-902,86,60
33,-1616,-529,-930,267,25
-35,-1682,-534,-910,362,54
-44,-1700,-397,-824,234,214
-78,-1703,-273,-831,-62,532
-243,-1856,-445,-1014,-335,908
-523,-2217,-828,-1258,-449,1141
-750,-2506,-1150,-1398,-429,1074
-736,-2559,-1289,-1383,-284,681
-570,-2558,-1304,-1327,38,109
-416,-2627,-1279,-1329,406,-421
-169,-2800,-1173,-1312,662,-752
121,-3052,-1076,-1276,708,-741
240,-3374,-1172,-1283,537,-329
154,-3702,-1514,-1279,305,305
-156,-3971,-1731,-1133,74,828
-596,-4018,-1725,-860,-47,955
-860,-3932,-1645,-565,3,649
-846,-3766,-1530,-300,53,191
-637,-3550,-1326,-123,99,-114
-430,-3467,-1163,-73,174,-233
-226,-3460,-1128,-47,164,-252
-20,-3441,-1168,33,102,-185
103,-3380,-1202,155,39,-58
140,-3267,-1181,295,-7,71
130,-3099,-1091,439,-19,156
65,-2917,-948,556,-9,159
-4,-2798,-826,615,37,92
-86,-2764,-805,623,92,14
-205,-2811,-860,623,108,-42
-304,-2884,-908,643,91,-92
-343,-2929,-995,682,60,-159
-344,-2953,-1066,746,47,-225
-329,-2953,-1061,821,66,-282
-306,-2881,-1002,911,60,-333
-321,-2799,-887,976,44,-374
-353,-2761,-862,979,29,-383
-406,-2766,-864,967,-32,-367
-447,-2738,-898,972,-118,-382
-439,-2731,-942,990,-181,-415
-417,-2748,-955,995,-205,-432
-422,-2759,-1012,987,-204,-446
-420,-2748,-1073,1014,-203,-483
-414,-2720,-1120,1087,-176,-556
-358,-2635,-1131,1203,-165,-646
-228,-2432,-1003,1347,-164,-725
-147,-2219,-889,1411,-101,-777
-146,-2118,-802,1404,-40,-779
-178,-1996,-667,1390,-64,-736
-189,-1855,-555,1348,-152,-683
-155,-1755,-533,1241,-251,-614
-66,-1707,-534,1092,-317,-504
-66,-1725,-596,950,-346,-375
-160,-1776,-752,893,-399,-290
-174,-1785,-873,967,-455,-291
-45,-1712,-905,1103,-455,-345
106,-1616,-849,1241,-378,-392
184,-1507,-715,1364,-281,-415
201,-1381,-599,1463,-241,-437
216,-1255,-508,1537,-242,-441
241,-1136,-401,1543,-228,-364
202,-1027,-304,1479,-229,-226
138,-926,-194,1416,-265,-145
120,-802,-87,1350,-264,-175
126,-690,21,1276,-190,-281
127,-597,104,1185,-96,-410
156,-531,188,1064,-10,-533
231,-467,277,913,70,-621
286,-428,385,750,155,-645
285,-419,451,552,193,-611
318,-431,460,326,169,-525
334,-521,389,86,131,-396
340,-606,289,-120,36,-219
316,-643,236,-259,-79,-35
298,-661,202,-375,-131,98
304,-705,155,-462,-134,151
303,-731,119,-498,-127,164
290,-729,131,-506,-95,169
274,-696,181,-517,-51,164
284,-648,236,-550,5,147
240,-649,261,-617,35,152
170,-654,286,-709,-9,198
111,-699,299,-836,-84,256
111,-746,267,-1001,-163,309
166,-808,161,-1180,-185,355
242,-913,20,-1349,-161,392
283,-1078,-161,-1474,-85,443
242,-1302,-434,-1507,24,484
175,-1538,-698,-1400,127,490
110,-1697,-844,-1150,207,460
93,-1680,-777,-858,261,437
27,-1605,-604,-649,273,473
-62,-1546,-407,-608,248,556
-216,-1565,-313,-693,191,633
-340,-1598,-308,-793,62,669
-326,-1550,-299,-865,-102,668
-136,-1404,-270,-946,-160,617
47,-1337,-283,-1108,-40,535
39,-1448,-448,-1314,146,458
-164,-1704,-644,-1414,402,388
-268,-1915,-778,-1300,459,337
-148,-1950,-764,-1074,276,421
-128,-1936,-641,-933,54,697
-289,-1968,-575,-976,-137,984
-408,-2032,-636,-1113,-271,1081
-449,-2101,-733,-1236,-200,976
-410,-2147,-785,-1329,-66,752
-424,-2291,-891,-1398,143,458
-486,-2570,-1073,-1403,389,189
-410,-2776,-1168,-1275,382,68
-294,-2904,-1123,-1098,241,159
-215,-3021,-1099,-994,112,353
-168,-3143,-1174,-922,2,547
-159,-3156,-1159,-822,-89,714
-254,-3060,-1068,-750,-106,798
-397,-2926,-952,-710,-84,741
-477,-2787,-865,-685,-77,555
-484,-2635,-821,-683,14,304
-396,-2529,-808,-673,36,81
-336,-2524,-823,-655,38,-59
-237,-2552,-817,-604,66,-150
-151,-2530,-788,-503,-32,-154
-112,-2521,-784,-425,-113,-86
-151,-2592,-804,-413,-144,-11
-179,-2800,-945,-466,-138,20
-108,-3101,-1129,-497,-140,19
-64,-3399,-1289,-460,-182,32
-4,-3668,-1535,-375,-217,88
105,-3862,-1716,-192,-214,217
109,-3883,-1707,62,-218,392
-102,-3819,-1588,299,-193,460
-314,-3692,-1449,495,-86,304
-427,-3588,-1337,647,13,34
-453,-3504,-1262,751,85,-190
-491,-3452,-1222,789,147,-289
-532,-3426,-1159,800,122,-335
-462,-3380,-1112,817,86,-420
-383,-3341,-1138,835,77,-497
-345,-3275,-1160,852,42,-494
-361,-3151,-1100,875,2,-458
-378,-3022,-1023,872,-27,-460
-390,-2905,-996,853,-66,-498
-323,-2836,-1017,836,-57,-548
-216,-2743,-1024,801,-30,-580
-166,-2673,-1083,732,52,-577
-97,-2555,-1041,678,94,-481
-45,-2347,-926,642,62,-352
-112,-2177,-805,592,66,-271
-288,-2075,-639,541,68,-280
-449,-1990,-647,567,-40,-372
-445,-1850,-607,680,-192,-476
-332,-1667,-472,752,-230,-568
-314,-1590,-491,703,-198,-662
-323,-1652,-656,650,-144,-754
-251,-1752,-850,689,-102,-800
-120,-1778,-979,824,-133,-769
-24,-1701,-964,1041,-184,-690
-6,-1571,-872,1233,-171,-651
0,-1440,-762,1370,-111,-667
16,-1310,-626,1472,-62,-706
35,-1188,-504,1517,-12,-748
36,-1086,-383,1496,44,-763
44,-995,-259,1445,85,-769
59,-926,-158,1375,104,-759
71,-862,-77,1287,79,-701
75,-814,8,1158,-1,-598
91,-794,46,996,-108,-478
79,-796,30,832,-207,-351
74,-861,-31,671,-235,-234
86,-945,-108,538,-255,-123
74,-1022,-163,472,-294,-36
109,-1025,-163,457,-321,-2
218,-962,-108,439,-298,-4
296,-907,-35,388,-204,-19
255,-884,44,319,-112,-33
196,-841,108,245,-28,-63
184,-789,177,155,25,-95
186,-754,223,47,19,-87
194,-742,241,-75,-20,-42
244,-727,269,-206,-75,16
274,-748,249,-339,-109,75
229,-831,134,-452,-124,113
269,-914,26,-523,-146,147
333,-973,-31,-558,-158,226
322,-1077,-109,-575,-136,316
363,-1130,-133,-557,-109,377
330,-1112,-78,-515,-93,415
195,-1057,-26,-527,-42,417
63,-1058,-42,-623,18,400
0,-1119,-82,-739,44,388
-13,-1148,-141,-824,43,381
-52,-1210,-223,-861,41,371
-79,-1276,-313,-853,24,335
-76,-1325,-370,-790,-34,282
-29,-1348,-358,-680,-103,239
106,-1298,-284,-574,-186,248
362,-1195,-214,-533,-232,335
546,-1182,-223,-608,-152,488
258,-1353,-357,-806,71,662
-251,-1597,-536,-979,304,727
-575,-1715,-615,-1009,361,613
-579,-1714,-588,-967,314,419
-365,-1674,-559,-916,252,259
-189,-1687,-556,-914,159,286
-74,-1816,-639,-968,9,491
79,-1979,-803,-995,-140,803
200,-2116,-912,-954,-302,1186
157,-2190,-983,-905,-429,1554
-99,-2180,-906,-912,-326,1744
-470,-2187,-824,-990,-89,1603
-765,-2178,-770,-1033,121,1186
-781,-2168,-680,-1043,292,693
-683,-2217,-610,-1115,408,371
-651,-2347,-712,-1209,328,301
-633,-2487,-817,-1241,101,429
-532,-2610,-933,-1249,-68,571
-383,-2672,-1100,-1235,-158,629
-289,-2714,-1198,-1185,-163,587
-267,-2691,-1199,-1114,-83,445
-272,-2589,-1135,-1018,19,238
-302,-2485,-985,-940,114,21
-277,-2431,-915,-929,150,-123
-243,-2526,-965,-916,103,-114
-232,-2642,-1071,-860,-23,45
-328,-2698,-1116,-775,-224,288
-478,-2720,-1143,-708,-361,473
-540,-2677,-1125,-660,-408,468
-542,-2638,-1083,-656,-360,268
-396,-2642,-1055,-711,-223,-61
-232,-2744,-1126,-763,5,-361
-39,-2848,-1222,-736,14,-465
4,-2924,-1298,-653,-71,-352
-38,-3016,-1399,-558,-132,-155
-177,-3122,-1483,-461,-146,48
-300,-3184,-1554,-342,-159,181
-396,-3235,-1597,-213,-138,209
-465,-3277,-1624,-65,-70,110
-363,-3247,-1601,124,-13,-67
-228,-3144,-1504,298,51,-184
-156,-3083,-1421,414,118,-228
-143,-3042,-1363,511,165,-237
-175,-3022,-1349,604,182,-227
-261,-3008,-1346,695,157,-192
-311,-2979,-1352,768,143,-171
-391,-2994,-1360,808,162,-176
-491,-3060,-1438,832,195,-225
-484,-3071,-1508,903,192,-301
-427,-2993,-1444,1015,164,-373
-385,-2909,-1348,1095,190,-452
-357,-2867,-1293,1134,230,-530
-334,-2853,-1232,1172,243,-567
-387,-2855,-1218,1219,208,-554
-446,-2822,-1222,1268,126,-526
-429,-2724,-1178,1299,54,-511
-437,-2624,-1157,1295,26,-522
-468,-2565,-1150,1290,10,-555
-558,-2544,-1117,1321,40,-641
-601,-2532,-1241,1361,77,-794
-460,-2445,-1234,1467,47,-912
-306,-2233,-1092,1550,81,-937
-253,-2081,-1011,1519,168,-876
-197,-2028,-956,1468,196,-774
-189,-1905,-807,1489,180,-704
-179,-1747,-674,1546,60,-677
-137,-1567,-525,1581,4,-680
-199,-1369,-379,1541,92,-692
-185,-1246,-304,1433,171,-751
-55,-1133,-222,1321,237,-804
1,-1055,-165,1225,309,-848
27,-1060,-166,1169,322,-915
9,-1096,-225,1169,309,-991
54,-1125,-307,1214,320,-1041
125,-1082,-283,1261,302,-980
73,-1053,-218,1229,273,-822
-43,-1039,-181,1138,286,-667
5,-1004,-143,1053,215,-524
54,-998,-53,956,217,-405
47,-987,49,893,167,-330
126,-921,130,855,19,-305
164,-885,221,796,-97,-275
206,-835,305,697,-259,-200
219,-741,392,564,-455,-69
190,-642,457,365,-626,71
109,-659,416,92,-719,161
39,-802,229,-153,-689,143
65,-988,0,-287,-547,14
219,-1106,-130,-294,-379,-158
359,-1149,-179,-199,-257,-284
455,-1089,-148,-56,-177,-339
573,-921,-13,69,-104,-324
622,-713,200,112,-36,-252
571,-523,432,47,24,-177
517,-387,573,-110,81,-128
441,-352,605,-340,66,-53
366,-379,539,-614,-24,91
319,-481,388,-885,-117,263
307,-702,137,-1066,-165,371
335,-866,-49,-1101,-192,407
336,-987,-201,-1040,-172,413
331,-1078,-333,-956,-94,396
365,-1104,-338,-870,-43,403
334,-1055,-225,-798,-15,472
231,-986,-111,-778,-34,616
123,-925,-31,-787,-193,815
39,-842,65,-835,-400,1049
-23,-767,110,-962,-501,1234
-146,-775,66,-1178,-498,1280
-311,-1014,-182,-1401,-383,1097
-228,-1372,-618,-1473,-165,657
-31,-1728,-1028,-1289,188,155
220,-1911,-1213,-910,422,-176
301,-1835,-1054,-529,439,-176
187,-1665,-837,-328,293,121
-48,-1618,-678,-355,88,561
-322,-1588,-521,-543,-137,928
-475,-1555,-436,-812,-130,1084
-504,-1614,-488,-1127,-57,970
-468,-1827,-678,-1428,35,631
-396,-2143,-998,-1581,268,207
-184,-2409,-1162,-1565,442,-115
12,-2445,-1111,-1464,439,-189
30,-2480,-1104,-1393,310,11
-77,-2546,-1104,-1363,119,421
-281,-2535,-1089,-1351,-128,850
-506,-2473,-1086,-1328,-348,1108
-614,-2375,-1039,-1300,-441,1111
-501,-2278,-936,-1353,-357,895
-336,-2375,-909,-1488,-149,534
-139,-2679,-1067,-1589,35,171
-61,-3060,-1340,-1551,36,11
-92,-3352,-1561,-1415,-25,109
-113,-3510,-1616,-1247,-73,299
-124,-3566,-1607,-1056,-146,418
-107,-3495,-1533,-850,-207,453
-102,-3387,-1415,-708,-153,474
-111,-3272,-1253,-603,-129,477
-90,-3211,-1173,-527,-140,431
-14,-3180,-1181,-468,-173,387
-11,-3106,-1169,-411,-209,401
-65,-3007,-1132,-380,-195,407
-120,-2920,-1089,-335,-152,334
-174,-2903,-1041,-263,-116,204
-118,-2964,-1134,-194,-95,74
-11,-3077,-1266,-139,-67,59
-46,-3226,-1356,-99,1,92
-176,-3413,-1489,-16,83,10
-181,-3511,-1597,186,117,-146
-99,-3456,-1560,435,139,-222
-123,-3349,-1425,611,179,-203
-231,-3268,-1367,715,192,-197
-272,-3185,-1336,808,181,-230
-254,-3043,-1227,890,167,-255
-297,-2917,-1123,902,159,-264
-367,-2905,-1146,832,156,-253
-415,-2922,-1218,751,116,-209
-498,-2988,-1345,725,64,-182
-426,-3004,-1486,821,48,-236
-327,-2880,-1427,998,131,-318
-331,-2784,-1336,1124,208,-412
-342,-2677,-1337,1229,204,-520
-306,-2493,-1230,1337,161,-547
-305,-2326,-1131,1350,160,-504
-333,-2208,-1096,1295,201,-465
-312,-2066,-1029,1275,241,-497
-241,-1969,-896,1280,281,-566
-195,-1888,-777,1310,237,-664
-214,-1821,-752,1371,119,-753
-283,-1839,-829,1412,23,-748
-242,-1858,-942,1421,-42,-626
-184,-1802,-958,1433,-124,-466
-172,-1682,-876,1454,-145,-402
-127,-1498,-754,1495,-77,-476
-49,-1377,-599,1490,60,-587
-65,-1263,-446,1418,212,-677
-123,-1218,-319,1327,225,-695
-139,-1192,-285,1236,155,-641
-73,-1201,-292,1151,33,-499
-4,-1125,-225,1076,-115,-304
33,-1046,-145,975,-134,-188
29,-1027,-134,850,-64,-196
28,-1063,-151,796,-81,-271
23,-1071,-190,808,-110,-386
31,-1067,-179,855,-86,-509
43,-1030,-141,871,-81,-584
94,-1010,-132,818,-98,-572
134,-998,-104,718,-120,-468
139,-987,-71,602,-153,-342
132,-990,-49,491,-193,-245
140,-965,-13,403,-222,-192
177,-926,25,321,-223,-173
213,-902,41,234,-207,-152
174,-954,-8,165,-175,-114
180,-1039,-98,121,-142,-85
315,-1061,-127,101,-143,-66
399,-972,-51,109,-143,-13
382,-849,59,74,-102,23
397,-729,161,-9,-44,-10
355,-647,262,-137,45,-65
302,-617,300,-322,166,-129
298,-640,303,-511,264,-179
299,-679,258,-686,251,-141
256,-775,158,-838,126,20
188,-912,18,-951,-54,264
139,-1058,-127,-1008,-260,514
152,-1148,-261,-1001,-453,735
230,-1107,-294,-952,-533,921
171,-1066,-241,-969,-448,1046
-22,-1092,-250,-1084,-256,1015
-160,-1099,-259,-1173,-85,795
-102,-1027,-245,-1213,55,502
1,-945,-258,-1271,205,266
58,-914,-292,-1368,326,122
116,-909,-335,-1431,395,44
54,-989,-375,-1419,421,10
-2,-1118,-482,-1368,353,7
-70,-1288,-578,-1266,130,80
-79,-1460,-675,-1179,-118,214
-59,-1635,-812,-1183,-201,350
-84,-1854,-970,-1289,-211,522
-91,-2005,-1085,-1396,-233,658
-50,-2041,-1129,-1449,-183,690
-39,-1961,-1081,-1463,-35,582
-112,-1875,-981,-1513,186,316
-220,-2004,-906,-1609,477,-25
-240,-2307,-1005,-1641,537,-268
-104,-2670,-1282,-1606,314,-196
85,-3070,-1571,-1521,-35,218
199,-3284,-1804,-1392,-283,787
151,-3369,-1871,-1244,-348,1261
-108,-3372,-1755,-1068,-278,1374
-336,-3256,-1602,-858,-108,1072
-432,-3088,-1438,-672,31,663
-382,-2890,-1164,-584,124,365
-210,-2780,-909,-634,186,175
-79,-2933,-943,-771,180,129
-13,-3321,-1229,-875,89,264
18,-3604,-1538,-852,-54,536
-19,-3648,-1648,-711,-171,783
-153,-3628,-1635,-527,-172,813
-250,-3553,-1575,-285,-83,586
-255,-3385,-1416,-19,11,276
-183,-3221,-1237,135,111,59
-127,-3151,-1161,181,152,-16
-112,-3135,-1132,215,126,6
-95,-3108,-1127,272,78,28
-86,-3078,-1126,340,51,5
-68,-3031,-1116,410,47,-55
-45,-2975,-1110,481,63,-144
-32,-2943,-1124,558,95,-241
-36,-2920,-1163,656,112,-324
-51,-2897,-1185,782,133,-396
-38,-2757,-1108,925,129,-450
-82,-2588,-990,1025,126,-489
-137,-2485,-936,1052,140,-524
-140,-2439,-921,1046,133,-549
-125,-2397,-945,1048,99,-551
-112,-2378,-968,1061,73,-547
-91,-2404,-974,1074,82,-560
-93,-2446,-1029,1101,104,-590
-142,-2486,-1067,1165,112,-614
-168,-2502,-1088,1240,118,-624
-118,-2447,-1048,1308,116,-617
-87,-2350,-954,1360,124,-621
