ax,ay,az,gx,gy,gz
-293,-1909,-1094,988,398,-1296
-208,-2012,-1309,994,473,-1313
-15,-2055,-1496,1117,456,-1180
82,-1991,-1379,1279,295,-888
-26,-1866,-1212,1400,139,-585
-159,-1793,-1131,1463,114,-411
-117,-1723,-989,1543,107,-376
-44,-1573,-779,1654,77,-419
-12,-1430,-584,1715,102,-483
-35,-1316,-406,1704,152,-544
-125,-1215,-189,1644,192,-626
-217,-1101,-61,1549,228,-765
-167,-1014,-48,1411,256,-923
-18,-988,-58,1256,279,-1003
132,-968,-48,1116,273,-969
202,-963,-52,1022,247,-893
189,-959,-32,1000,178,-816
186,-907,-2,1030,93,-761
192,-858,34,1077,13,-713
185,-802,77,1117,-96,-649
183,-720,127,1122,-191,-564
163,-625,180,1067,-205,-448
103,-560,209,966,-223,-329
92,-519,222,852,-329,-233
186,-476,245,727,-408,-158
286,-476,254,573,-419,-79
314,-504,239,438,-417,7
270,-531,211,364,-444,83
230,-501,225,331,-481,133
219,-413,277,280,-533,168
229,-350,331,169,-562,208
266,-302,378,-10,-542,238
314,-301,383,-230,-453,235
282,-369,319,-464,-333,227
241,-450,237,-654,-260,218
250,-541,142,-801,-213,209
234,-700,-9,-893,-170,222
224,-866,-166,-910,-134,261
250,-991,-260,-855,-118,307
272,-1058,-323,-761,-126,328
269,-1083,-352,-658,-162,324
374,-1024,-293,-578,-163,320
483,-944,-186,-604,-104,353
401,-997,-168,-750,-14,452
207,-1143,-241,-904,76,553
59,-1272,-326,-975,104,593
7,-1387,-449,-966,69,583
-15,-1468,-501,-898,-16,591
-139,-1485,-509,-814,-142,617
-290,-1508,-531,-719,-277,603
-166,-1410,-477,-618,-372,549
123,-1232,-312,-599,-289,527
96,-1294,-371,-786,-103,577
-182,-1608,-611,-1031,63,629
-234,-1864,-793,-1158,148,628
-42,-1914,-851,-1126,81,619
165,-1865,-832,-1040,-27,663
225,-1838,-758,-1014,-9,727
104,-1825,-670,-1050,58,724
-164,-1890,-583,-1092,142,595
-468,-2042,-619,-1170,225,385
-566,-2276,-893,-1262,186,237
-339,-2486,-1105,-1287,-33,305
85,-2619,-1190,-1314,-237,582
305,-2797,-1274,-1346,-295,903
305,-2871,-1352,-1256,-297,1129
233,-2776,-1245,-1025,-318,1213
57,-2654,-1001,-808,-325,1191
-130,-2651,-811,-750,-216,1118
-299,-2878,-858,-826,-117,1071
-408,-3248,-1086,-911,-202,1150
-450,-3501,-1336,-957,-431,1386
-516,-3660,-1511,-977,-578,1649
-648,-3816,-1639,-1008,-548,1735
-738,-3861,-1726,-952,-418,1570
-839,-3829,-1720,-774,-261,1222
-844,-3665,-1629,-565,-143,809
-665,-3384,-1440,-372,-96,472
-456,-3120,-1221,-257,-45,259
-272,-2942,-1021,-222,26,135
-106,-2896,-940,-226,89,45
-16,-2928,-1012,-215,100,-14
-22,-2995,-1108,-184,101,-44
-40,-3073,-1186,-160,164,-92
-79,-3173,-1276,-114,247,-171
-110,-3300,-1427,-16,300,-263
-143,-3408,-1504,141,330,-323
-244,-3475,-1548,289,345,-347
-375,-3519,-1646,397,355,-354
-493,-3520,-1659,485,331,-347
-640,-3471,-1667,535,346,-388
-736,-3420,-1691,557,378,-473
-673,-3288,-1580,634,346,-587
-583,-3108,-1400,717,311,-711
-562,-2968,-1235,752,290,-789
-576,-2846,-1171,734,229,-821
-596,-2767,-1186,674,126,-816
-672,-2784,-1394,581,87,-801
-652,-2859,-1712,557,118,-803
-571,-2881,-1830,718,99,-815
-456,-2789,-1805,969,153,-865
-357,-2642,-1649,1231,241,-958
-290,-2505,-1515,1438,324,-1065
-221,-2393,-1371,1606,340,-1115
-190,-2258,-1260,1754,283,-1083
-147,-2066,-1135,1888,188,-1002
-93,-1846,-945,1994,103,-931
-16,-1602,-706,2065,67,-922
-34,-1399,-469,2081,132,-979
-119,-1263,-329,2022,234,-1083
-142,-1207,-303,1916,263,-1149
-123,-1185,-293,1820,220,-1090
-93,-1145,-285,1744,82,-918
-78,-1097,-227,1683,-131,-706
-88,-1044,-109,1623,-332,-498
-134,-957,19,1564,-490,-353
-75,-808,114,1520,-678,-319
156,-596,276,1447,-805,-352
350,-498,385,1216,-716,-352
405,-510,411,896,-553,-295
296,-630,357,598,-426,-248
212,-749,213,395,-363,-244
201,-830,105,287,-351,-248
170,-866,44,202,-398,-168
97,-890,7,151,-462,-26
50,-906,-33,117,-493,80
39,-911,-70,109,-503,104
11,-936,-100,132,-451,50
11,-982,-190,177,-311,-75
89,-1029,-243,246,-139,-209
267,-962,-208,328,49,-288
377,-879,-136,396,150,-271
329,-783,-19,430,140,-181
248,-653,89,398,168,-100
257,-550,206,326,246,-53
344,-480,345,230,280,-20
381,-437,460,65,250,75
299,-443,521,-130,182,208
233,-479,519,-320,60,322
268,-529,485,-500,-74,419
353,-638,381,-655,-175,489
406,-763,215,-755,-192,495
388,-846,90,-804,-135,459
372,-899,-1,-842,-33,404
338,-970,-125,-884,72,373
200,-1101,-279,-892,168,371
105,-1178,-343,-848,246,366
64,-1188,-335,-787,271,370
23,-1181,-326,-716,208,399
60,-1154,-272,-672,125,474
122,-1149,-219,-697,97,573
56,-1207,-265,-746,81,667
9,-1230,-307,-757,72,711
59,-1158,-257,-765,103,653
85,-1056,-223,-820,272,469
-34,-1071,-242,-973,617,191
-271,-1302,-357,-1207,968,-133
-325,-1596,-557,-1381,1062,-355
-130,-1906,-808,-1409,809,-240
153,-2186,-1012,-1316,346,237
239,-2298,-1070,-1160,-138,835
26,-2288,-1025,-1030,-396,1278
-268,-2235,-929,-959,-393,1366
-360,-2108,-743,-923,-187,1114
-322,-2026,-624,-941,144,707
-363,-2152,-640,-1028,399,399
-392,-2399,-705,-1136,439,340
-331,-2735,-968,-1225,228,507
-165,-3104,-1327,-1246,-98,862
-26,-3349,-1589,-1160,-396,1242
-115,-3316,-1533,-971,-424,1411
-395,-3183,-1308,-848,-89,1197
-590,-3074,-1156,-851,246,736
-558,-2859,-965,-770,314,284
-360,-2667,-655,-678,280,-33
-55,-2639,-478,-764,332,-107
123,-2762,-557,-925,224,138
-8,-2996,-790,-1031,-73,576
-229,-3252,-1066,-1076,-298,923
-264,-3424,-1318,-1042,-384,1030
-385,-3599,-1521,-909,-300,895
-551,-3690,-1581,-705,-55,536
-513,-3644,-1413,-470,193,82
-332,-3561,-1185,-295,316,-247
-142,-3529,-1084,-216,333,-334
7,-3549,-1078,-205,287,-213
24,-3613,-1143,-188,181,13
-61,-3641,-1227,-84,32,236
-164,-3598,-1256,52,-63,354
-253,-3579,-1317,145,-36,335
-324,-3592,-1368,248,31,219
-317,-3542,-1377,409,57,48
-230,-3403,-1270,581,62,-107
-196,-3259,-1120,670,95,-219
-228,-3195,-1117,642,171,-313
-282,-3228,-1212,589,216,-367
-287,-3197,-1220,587,158,-340
-338,-3096,-1129,598,53,-254
-468,-3009,-1112,563,-72,-176
-532,-2998,-1223,530,-179,-148
-471,-2983,-1367,556,-248,-140
-457,-2940,-1461,633,-295,-140
-552,-2938,-1615,757,-291,-183
-511,-2860,-1654,955,-248,-275
-349,-2669,-1467,1171,-172,-402
-357,-2441,-1168,1321,-76,-542
-512,-2284,-1082,1387,42,-730
-492,-2147,-1005,1463,68,-911
-315,-1877,-767,1536,56,-1008
-195,-1577,-522,1523,115,-1045
-156,-1308,-273,1426,197,-1097
-121,-1128,-87,1255,321,-1197
-25,-1050,-23,1049,407,-1238
51,-977,14,859,416,-1131
13,-914,39,659,326,-891
-63,-936,-51,485,234,-709
-75,-1022,-212,358,172,-633
-4,-1071,-352,300,32,-577
49,-1076,-427,361,-132,-515
12,-1065,-459,478,-230,-437
-18,-990,-441,595,-265,-370
-61,-913,-350,670,-310,-337
-101,-875,-286,704,-383,-338
-105,-874,-276,727,-386,-377
-83,-904,-292,732,-353,-436
-12,-934,-326,701,-340,-451
46,-991,-362,657,-384,-382
120,-1025,-364,630,-456,-257
182,-1007,-318,624,-483,-113
193,-960,-247,604,-479,-21
215,-897,-160,575,-447,-19
252,-820,-71,541,-352,-67
247,-744,22,487,-221,-120
221,-671,103,404,-94,-175
216,-627,154,301,20,-235
247,-568,191,213,54,-265
274,-495,280,133,45,-229
300,-426,366,10,43,-158
376,-348,403,-154,33,-94
433,-316,432,-345,32,-22
371,-351,385,-580,52,79
214,-451,254,-809,51,189
85,-600,82,-988,38,267
64,-778,-121,-1093,45,310
128,-967,-312,-1096,57,342
200,-1053,-397,-1024,28,401
187,-1070,-372,-945,-31,492
92,-1088,-330,-902,-106,588
-9,-1149,-385,-866,-185,639
-82,-1193,-453,-803,-259,638
-104,-1190,-473,-748,-319,615
-74,-1119,-444,-734,-307,564
-62,-1143,-479,-800,-151,475
-137,-1263,-584,-871,75,341
-123,-1325,-613,-886,229,217
-78,-1344,-597,-852,272,171
-146,-1451,-675,-821,224,227
-245,-1560,-799,-780,151,320
-249,-1567,-820,-750,73,422
-187,-1494,-731,-788,53,491
-236,-1537,-685,-988,149,452
-246,-1745,-864,-1211,320,279
-130,-2052,-1147,-1228,398,119
-40,-2332,-1385,-1020,277,148
-71,-2468,-1474,-732,77,386
-179,-2437,-1364,-542,-127,716
-216,-2339,-1181,-487,-293,1036
-376,-2320,-1021,-568,-416,1254
-606,-2292,-884,-763,-338,1194
-751,-2277,-768,-996,-68,833
-666,-2295,-757,-1228,221,330
-458,-2513,-819,-1405,430,-92
-191,-2846,-1040,-1468,494,-291
111,-3062,-1278,-1381,288,-134
289,-3255,-1449,-1256,7,341
325,-3426,-1550,-1142,-190,866
82,-3534,-1596,-969,-305,1142
-291,-3604,-1598,-775,-226,1052
-472,-3607,-1525,-622,-65,704
-466,-3553,-1365,-514,99,278
-291,-3506,-1220,-447,248,-96
-93,-3502,-1145,-407,276,-261
8,-3517,-1166,-391,230,-200
34,-3563,-1285,-375,165,-24
63,-3475,-1328,-288,30,179
36,-3325,-1251,-176,-61,307
-13,-3187,-1185,-87,-59,282
0,-3081,-1120,3,-21,152
68,-3013,-1077,66,42,0
180,-2991,-1076,90,139,-124
212,-3090,-1164,112,264,-195
150,-3218,-1307,187,327,-208
55,-3264,-1387,335,292,-172
-6,-3235,-1430,472,233,-128
-97,-3241,-1476,565,207,-84
-146,-3216,-1498,649,221,-66
-160,-3176,-1445,733,251,-89
-229,-3152,-1352,795,273,-114
-252,-3079,-1291,812,251,-81
-290,-3008,-1221,751,188,46
-350,-2955,-1197,642,80,204
-413,-2910,-1234,581,-46,299
-430,-2829,-1248,600,-142,270
-461,-2721,-1207,660,-136,106
-485,-2627,-1224,730,-112,-156
-381,-2534,-1236,811,-69,-451
-291,-2466,-1264,887,28,-668
-216,-2457,-1336,966,121,-758
-154,-2429,-1296,1085,156,-686
-144,-2291,-1139,1211,95,-503
-104,-2007,-899,1269,-11,-330
-85,-1808,-695,1193,-38,-203
-144,-1674,-529,1070,89,-187
-230,-1562,-457,980,217,-329
-340,-1505,-446,952,287,-581
-445,-1438,-507,934,347,-845
-463,-1402,-699,913,437,-1050
-353,-1442,-913,912,503,-1109
-214,-1526,-1068,974,503,-1004
-126,-1573,-1122,1156,451,-827
-74,-1495,-1019,1424,360,-679
-27,-1321,-836,1679,254,-583
-11,-1134,-625,1850,127,-474
-15,-986,-407,1899,6,-328
-73,-883,-196,1831,-109,-179
-119,-819,-93,1652,-217,-89
-56,-825,-101,1409,-260,-64
24,-872,-91,1209,-288,-37
57,-859,-44,1061,-318,-1
48,-838,9,922,-292,-16
57,-836,32,782,-219,-100
124,-829,54,672,-134,-210
149,-852,69,575,-51,-294
134,-879,56,520,-4,-344
108,-894,44,517,2,-371
138,-957,-3,555,-20,-357
214,-777,73,617,-152,-170
221,-751,153,431,-243,-148
215,-774,97,252,-237,-174
244,-769,103,150,-333,-60
249,-756,100,38,-398,43
275,-731,126,-73,-376,115
313,-696,158,-202,-308,155
275,-717,157,-331,-224,156
208,-730,145,-425,-151,135
190,-704,159,-509,-101,88
187,-659,190,-608,-72,51
127,-643,166,-732,-50,44
52,-661,94,-864,-61,47
15,-690,19,-973,-126,64
-18,-732,-57,-1063,-221,102
-4,-746,-122,-1142,-315,126
160,-733,-171,-1208,-362,123
481,-759,-240,-1284,-279,142
570,-907,-383,-1356,-74,240
297,-1103,-555,-1357,64,386
-17,-1196,-624,-1222,80,437
-164,-1158,-575,-1052,33,380
-206,-1052,-465,-967,-33,338
-324,-972,-345,-1013,-88,343
-375,-953,-327,-1202,-70,299
-313,-1077,-479,-1456,67,191
-143,-1351,-784,-1654,243,56
28,-1657,-1053,-1668,355,-56
157,-1800,-1149,-1509,383,-96
165,-1875,-1133,-1289,353,-24
70,-1878,-1020,-1072,231,143
-65,-1803,-847,-902,31,347
-209,-1733,-693,-875,-209,548
-221,-1833,-725,-1049,-346,646
-152,-2112,-992,-1279,-345,698
-108,-2437,-1302,-1411,-297,765
-87,-2670,-1528,-1417,-224,758
-49,-2835,-1650,-1329,-86,689
-21,-2976,-1640,-1188,77,641
-2,-2974,-1477,-988,82,676
-135,-2930,-1269,-827,-10,772
-245,-2989,-1256,-846,-24,847
-212,-3127,-1315,-933,-42,895
-301,-3259,-1357,-980,-78,902
-424,-3316,-1412,-955,-49,769
-457,-3306,-1400,-871,35,492
-398,-3241,-1304,-756,114,194
-275,-3169,-1205,-650,140,6
-129,-3137,-1168,-580,70,-4
-49,-3179,-1230,-536,-61,141
-46,-3231,-1313,-494,-186,329
6,-3193,-1326,-434,-262,433
85,-3118,-1308,-368,-270,446
91,-3046,-1291,-291,-242,426
-29,-2967,-1246,-208,-210,361
-149,-2862,-1172,-133,-143,202
-154,-2794,-1092,-94,-48,22
-116,-2844,-1133,-90,35,-62
-74,-2973,-1254,-66,43,-5
-132,-3064,-1329,22,-47,137
-255,-3142,-1395,140,-109,224
-317,-3173,-1440,280,-133,209
-317,-3143,-1405,409,-106,120
-326,-3183,-1382,464,17,-38
-336,-3251,-1382,525,120,-222
-298,-3279,-1375,603,159,-368
-260,-3306,-1416,643,168,-413
-289,-3381,-1524,662,156,-358
-318,-3407,-1588,731,103,-270
-325,-3319,-1526,858,16,-192
-312,-3131,-1373,976,-88,-143
-311,-2959,-1255,1010,-153,-143
-327,-2859,-1219,967,-160,-161
-349,-2837,-1290,924,-123,-198
-320,-2831,-1326,941,-118,-257
-281,-2812,-1377,1009,-123,-341
-206,-2783,-1470,1104,-109,-410
-144,-2720,-1517,1220,-133,-373
-132,-2594,-1522,1336,-172,-239
-140,-2392,-1390,1464,-171,-127
-140,-2159,-1149,1597,-165,-141
-171,-1956,-947,1700,-161,-302
-187,-1786,-792,1773,-117,-525
-118,-1632,-673,1802,-68,-698
-60,-1532,-584,1751,-26,-729
-14,-1437,-527,1657,-23,-651
52,-1339,-491,1547,-58,-554
112,-1250,-425,1444,-95,-444
50,-1176,-342,1372,-133,-342
-43,-1040,-251,1348,-211,-304
-81,-867,-128,1340,-278,-332
-82,-707,-10,1279,-302,-399
-109,-590,66,1155,-271,-501
-102,-527,74,968,-132,-656
0,-549,24,742,108,-839
168,-631,-65,555,344,-963
274,-713,-133,438,508,-948
205,-762,-147,383,558,-831
72,-731,-114,398,522,-699
38,-625,-21,425,429,-591
83,-503,108,428,326,-465
52,-376,288,377,209,-303
-33,-316,401,231,110,-201
-113,-344,407,50,17,-194
-112,-398,306,-146,-101,-208
-23,-495,167,-350,-156,-188
87,-625,27,-543,-179,-125
144,-781,-134,-662,-197,-43
190,-939,-250,-690,-177,18
253,-996,-303,-647,-181,89
246,-972,-265,-583,-196,178
133,-906,-177,-566,-185,245
-52,-867,-105,-615,-133,254
-206,-876,-88,-715,-56,179
-254,-907,-110,-825,-31,70
-262,-1023,-202,-936,-36,8
-212,-1183,-396,-1002,-67,-7
-37,-1250,-538,-977,-135,0
348,-1197,-561,-911,-135,22
657,-1178,-545,-882,-7,114
637,-1151,-494,-914,117,299
451,-1082,-368,-974,205,450
268,-995,-218,-1068,286,494
116,-947,-109,-1202,293,505
-22,-948,-67,-1376,231,539
-130,-1015,-127,-1571,112,593
-201,-1076,-255,-1730,-74,683
-239,-1160,-428,-1871,-242,818
-304,-1342,-697,-1975,-310,948
-248,-1570,-987,-1963,-237,965
-122,-1797,-1242,-1832,-46,809
39,-1860,-1302,-1639,207,553
30,-1903,-1280,-1491,516,348
-88,-2059,-1351,-1349,643,253
-162,-2129,-1378,-1133,444,306
-236,-2080,-1278,-910,144,527
-322,-2010,-1193,-838,-100,812
-442,-1975,-1142,-888,-269,1009
-457,-1988,-1158,-946,-312,996
-448,-2111,-1242,-939,-237,802
-345,-2245,-1335,-866,-128,524
-282,-2404,-1434,-759,83,268
-286,-2620,-1556,-652,217,132
-286,-2832,-1691,-545,164,193
-308,-2943,-1717,-417,-82,426
-349,-2937,-1661,-348,-297,680
-399,-2862,-1538,-384,-350,810
-506,-2818,-1427,-470,-282,753
-630,-2790,-1373,-485,-173,535
-646,-2729,-1309,-394,-121,260
-512,-2625,-1188,-300,-92,18
-269,-2603,-1172,-285,-59,-107
-92,-2667,-1223,-302,-122,-5
-13,-2726,-1306,-319,-241,217
-11,-2765,-1377,-352,-291,379
-92,-2791,-1428,-376,-270,409
-182,-2827,-1455,-341,-210,293
-158,-2786,-1440,-240,-132,76
-133,-2730,-1357,-130,-16,-117
-107,-2713,-1311,-61,22,-198
-69,-2763,-1306,-37,22,-145
-34,-2835,-1323,-32,-4,-25
-65,-2905,-1381,1,-30,62
-155,-2966,-1450,90,-42,52
-161,-2956,-1462,214,-32,-21
-113,-2894,-1401,314,11,-91
-81,-2857,-1347,372,71,-142
-107,-2895,-1318,418,121,-175
-91,-2937,-1326,461,148,-185
-111,-2968,-1302,504,127,-158
-196,-2997,-1292,540,84,-126
-281,-3006,-1297,566,34,-128
-327,-3040,-1388,555,17,-157
-303,-3131,-1524,535,3,-151
-244,-3140,-1607,583,-26,-104
-190,-3081,-1589,669,-1,-78
-274,-3027,-1517,751,75,-92
-375,-2975,-1497,845,79,-146
-395,-2907,-1490,951,40,-215
-393,-2777,-1396,1060,13,-255
-407,-2607,-1261,1139,-10,-306
-429,-2457,-1168,1174,6,-409
-419,-2333,-1125,1183,41,-526
-408,-2229,-1066,1204,54,-574
-396,-2053,-971,1195,11,-566
-402,-1953,-942,1130,-11,-599
-374,-1921,-952,1088,-17,-651
-353,-1868,-962,1102,-40,-674
-354,-1797,-953,1145,-64,-682
-282,-1677,-891,1173,-83,-686
-235,-1557,-814,1175,-69,-671
-217,-1450,-746,1182,-75,-645
-228,-1336,-671,1184,-113,-657
-259,-1287,-640,1151,-82,-714
-216,-1261,-653,1096,-24,-751
-122,-1227,-653,1067,-23,-723
-108,-1172,-606,1070,-52,-665
-141,-1121,-545,1082,-58,-640
-112,-1067,-484,1092,-37,-652
-87,-1033,-398,1089,-23,-651
-182,-1072,-356,1066,-43,-619
-224,-1128,-435,1042,-77,-595
-136,-1189,-502,1031,-189,-516
-25,-1205,-485,1051,-338,-351
69,-1123,-432,1069,-439,-186
115,-1049,-327,1065,-479,-86
159,-953,-197,1040,-460,-62
184,-836,-61,982,-354,-98
195,-756,34,864,-182,-164
166,-744,93,717,-46,-211
129,-739,151,581,9,-231
147,-700,205,455,2,-223
197,-664,254,317,-61,-155
185,-670,243,176,-160,-36
172,-689,207,35,-277,93
193,-714,155,-109,-356,197
223,-736,122,-230,-361,242
234,-735,114,-340,-290,212
224,-770,89,-445,-145,102
265,-827,40,-531,15,-36
282,-880,1,-583,92,-88
275,-910,-20,-633,110,-40
258,-917,-1,-710,109,41
237,-915,10,-809,85,116
194,-934,-17,-926,37,189
127,-1015,-109,-1053,-33,269
41,-1155,-259,-1150,-106,338
36,-1268,-441,-1176,-172,381
85,-1345,-593,-1143,-206,412
103,-1412,-674,-1076,-140,387
86,-1486,-714,-1010,28,320
93,-1546,-732,-943,177,257
116,-1526,-687,-857,229,255
72,-1479,-574,-809,200,348
-18,-1445,-484,-815,139,473
-146,-1382,-432,-828,46,577
-288,-1346,-422,-870,-26,630
-373,-1425,-526,-935,-11,592
-339,-1580,-719,-949,67,450
-313,-1750,-886,-898,134,284
-303,-1934,-1053,-823,218,138
-162,-2166,-1265,-726,337,1
86,-2287,-1353,-570,376,-37
162,-2281,-1238,-411,364,59
70,-2213,-1071,-334,348,221
-78,-2130,-895,-308,267,378
-237,-2097,-722,-344,161,476
-319,-2180,-738,-466,76,533
-240,-2357,-864,-622,-43,633
-153,-2532,-983,-739,-155,767
-165,-2693,-1093,-785,-165,861
-247,-2808,-1127,-745,-135,841
-307,-2803,-1079,-642,-106,707
-303,-2731,-976,-556,-35,546
-287,-2686,-886,-533,39,405
-242,-2639,-819,-546,65,293
-105,-2604,-729,-573,61,222
19,-2675,-787,-631,67,228
42,-2799,-929,-654,22,317
17,-2857,-1004,-636,-73,437
-82,-2876,-1018,-613,-128,504
-196,-2901,-1038,-600,-90,430
-215,-2946,-1086,-570,-6,250
-159,-2983,-1110,-491,52,79
-99,-2998,-1096,-395,70,-21
-12,-3023,-1112,-342,72,-34
18,-3072,-1124,-303,47,25
8,-3121,-1164,-265,41,74
-5,-3193,-1229,-207,55,69
-14,-3226,-1261,-105,51,50
-20,-3212,-1259,19,46,33
-84,-3208,-1243,130,64,7
-123,-3214,-1253,226,87,-41
-113,-3209,-1223,312,106,-96
-138,-3238,-1214,363,150,-141
-210,-3312,-1255,405,167,-180
-238,-3350,-1288,470,137,-189
-257,-3328,-1290,533,79,-142
-304,-3284,-1286,569,24,-60
-354,-3182,-1230,617,-53,6
-418,-3028,-1127,677,-112,-8
-486,-2884,-1073,702,-117,-90
-479,-2836,-1126,693,-91,-198
-388,-2809,-1194,724,-88,-266
-315,-2766,-1216,784,-52,-275
-328,-2675,-1205,828,15,-244
-417,-2603,-1229,824,74,-164
-438,-2548,-1253,814,23,-55
-462,-2452,-1227,865,-20,32
-471,-2271,-1081,1020,-105,-8
-440,-2068,-896,1189,-148,-201
-363,-1884,-728,1323,-98,-445
-312,-1761,-636,1386,-62,-606
-296,-1655,-601,1426,-110,-616
-262,-1579,-580,1397,-188,-550
-156,-1534,-532,1334,-227,-497
-54,-1487,-483,1281,-220,-474
-71,-1469,-444,1248,-193,-483
-157,-1437,-427,1239,-189,-522
-175,-1410,-458,1228,-197,-583
-128,-1445,-496,1191,-186,-601
-119,-1521,-568,1159,-181,-565
-92,-1522,-595,1190,-223,-521
-31,-1449,-511,1244,-250,-493
19,-1362,-397,1250,-189,-494
6,-1318,-321,1234,-101,-539
-17,-1266,-263,1241,-54,-606
46,-1154,-166,1243,-30,-654
113,-1044,-56,1192,16,-642
94,-975,41,1093,64,-589
58,-910,120,973,44,-532
58,-849,205,842,-26,-480
70,-791,289,693,-86,-426
64,-787,289,503,-134,-360
66,-843,225,312,-203,-262
71,-911,127,168,-272,-164
88,-982,29,87,-300,-98
238,-970,19,68,-299,-59
346,-933,64,60,-242,-34
274,-934,76,39,-160,-34
162,-901,104,40,-95,-79
127,-810,143,15,-39,-144
128,-753,191,-85,-17,-146
91,-757,201,-242,-23,-95
57,-801,138,-409,-49,-48
43,-893,53,-550,-108,9
94,-973,-31,-644,-183,88
219,-1011,-85,-709,-224,162
318,-1066,-141,-762,-189,230
295,-1169,-207,-779,-120,277
214,-1244,-288,-731,-44,253
189,-1288,-336,-641,34,188
183,-1279,-339,-572,61,155
148,-1269,-327,-554,64,178
50,-1280,-300,-603,38,253
-65,-1331,-329,-686,-10,340
-28,-1343,-356,-763,-63,411
92,-1375,-388,-843,-45,462
96,-1430,-407,-911,39,504
-18,-1482,-433,-952,140,492
-95,-1571,-490,-954,209,409
-34,-1691,-580,-881,231,328
67,-1797,-634,-752,172,358
131,-1786,-606,-606,6,534
133,-1642,-471,-501,-207,807
69,-1471,-284,-487,-357,1061
-65,-1351,-136,-575,-388,1169
-240,-1357,-134,-772,-307,1079
-394,-1509,-251,-1003,-145,837
-517,-1800,-547,-1197,-23,592
-447,-2199,-889,-1240,45,449
-153,-2583,-1201,-1074,71,458
-51,-2701,-1204,-718,-23,601
-203,-2546,-927,-382,-136,727
-356,-2248,-566,-223,-208,731
-408,-1952,-233,-257,-254,603
-526,-1729,-12,-444,-204,392
-567,-1654,0,-758,40,70
-482,-1880,-206,-1074,338,-259
-202,-2222,-525,-1212,392,-368
-19,-2490,-813,-1123,149,-157
80,-2557,-956,-950,-165,241
116,-2487,-918,-871,-310,618
-100,-2491,-855,-912,-247,802
-381,-2549,-863,-942,-98,665
-438,-2557,-886,-899,45,336
-327,-2579,-933,-834,132,67
-143,-2580,-972,-784,152,-44
-64,-2574,-896,-768,162,-25
-179,-2731,-931,-820,207,0
-230,-2967,-1151,-845,183,30
-187,-3185,-1415,-775,70,139
-189,-3316,-1567,-629,-25,292
-272,-3292,-1537,-430,-16,316
-302,-3190,-1371,-228,82,169
-245,-3108,-1141,-102,208,-18
-223,-3173,-1048,-83,270,-84
-231,-3375,-1113,-117,225,23
-319,-3590,-1249,-122,88,253
-445,-3771,-1405,-66,-44,457
-529,-3894,-1520,56,-124,509
-606,-3958,-1539,232,-97,389
-629,-3960,-1494,447,-8,118
-577,-3917,-1408,645,71,-166
-483,-3898,-1328,773,97,-307
-451,-3910,-1358,850,49,-275
-460,-3903,-1411,949,-64,-166
-475,-3817,-1400,1073,-174,-68
-519,-3648,-1301,1181,-256,-23
-549,-3427,-1169,1263,-294,-79
-549,-3183,-1012,1314,-273,-217
-554,-2991,-844,1313,-236,-410
-516,-2820,-788,1287,-233,-619
-478,-2680,-773,1238,-276,-743
-469,-2540,-806,1147,-309,-774
-374,-2404,-872,1047,-311,-756
-275,-2295,-920,997,-341,-693
-188,-2165,-888,1003,-330,-630
-120,-2038,-853,1021,-237,-624
-97,-1907,-828,1079,-153,-648
-110,-1784,-760,1186,-89,-673
-129,-1709,-715,1317,-78,-714
-61,-1582,-690,1488,-108,-785
52,-1439,-633,1634,-87,-833
64,-1366,-540,1733,-33,-820
20,-1297,-447,1834,-15,-801
11,-1152,-307,1935,12,-836
61,-975,-125,1955,100,-888
51,-895,13,1867,206,-893
-38,-860,114,1748,216,-864
-69,-773,211,1600,123,-820
-37,-720,307,1390,45,-730
-36,-826,261,1124,19,-597
-55,-1021,57,915,-57,-452
-7,-1129,-83,841,-209,-266
70,-1145,-127,827,-325,-62
117,-1108,-77,816,-387,100
109,-1035,11,816,-361,128
116,-890,115,808,-241,12
86,-802,242,732,-45,-169
35,-777,325,600,127,-354
49,-764,320,476,202,-495
125,-741,337,369,149,-502
150,-733,332,212,73,-369
126,-768,284,39,-15,-195
70,-819,218,-89,-127,-49
112,-817,170,-164,-184,22
249,-762,171,-216,-163,49
261,-773,169,-281,-93,65
136,-829,135,-324,-46,58
65,-809,134,-334,-44,20
86,-735,189,-365,-72,19
85,-690,209,-479,-72,88
24,-776,124,-649,-59,159
30,-876,29,-782,-78,187
88,-984,-59,-848,-71,178
198,-1057,-123,-861,-14,152
276,-1133,-177,-843,82,135
273,-1238,-256,-794,185,122
237,-1314,-299,-693,223,110
176,-1308,-271,-583,220,114
89,-1298,-264,-517,179,177
-63,-1327,-276,-493,79,316
-254,-1390,-326,-473,-21,438
-376,-1422,-354,-420,-147,487
-460,-1428,-364,-313,-301,466
-330,-1314,-331,-152,-417,349
284,-905,-74,-37,-319,175
642,-804,165,-235,163,18
280,-1155,21,-716,759,-127
-124,-1628,-279,-927,926,-172
17,-1832,-442,-837,626,-1
173,-1798,-369,-747,200,453
57,-1782,-319,-887,1,912
-117,-1899,-363,-1125,38,1126
-353,-2059,-432,-1226,58,1055
-472,-2139,-487,-1165,22,787
-391,-2119,-412,-1088,3,514
-252,-2157,-249,-1114,30,348
-183,-2453,-415,-1282,80,334
-49,-2876,-722,-1437,51,556
6,-3140,-916,-1460,-83,989
-107,-3175,-944,-1378,-220,1377
-314,-3129,-802,-1277,-239,1450
-480,-3063,-707,-1215,-115,1191
-541,-2958,-610,-1111,12,780
-502,-2769,-478,-1027,89,371
-385,-2584,-372,-1029,144,59
-195,-2539,-358,-1091,228,-141
10,-2601,-399,-1129,235,-196
107,-2710,-487,-1076,156,-101
113,-2860,-709,-957,18,107
79,-2935,-878,-820,-160,385
15,-2943,-870,-728,-228,566
-40,-3002,-881,-677,-124,505
-88,-3022,-875,-588,-22,284
-134,-2985,-787,-488,83,58
-145,-3005,-723,-447,185,-113
-74,-3086,-716,-447,220,-182
-47,-3220,-780,-459,194,-128
-73,-3403,-939,-454,155,-6
-74,-3566,-1066,-377,91,117
-135,-3696,-1139,-222,35,179
-215,-3751,-1166,-11,54,141
-252,-3738,-1101,195,110,49
-287,-3724,-1036,335,162,-43
-284,-3717,-1004,455,175,-103
-278,-3678,-918,572,154,-126
-305,-3654,-894,652,144,-120
-369,-3664,-930,716,93,-63
-405,-3581,-895,800,-9,4
-439,-3430,-788,879,-64,-24
-415,-3304,-704,911,-20,-169
-368,-3232,-674,930,41,-338
-325,-3165,-699,937,57,-439
-315,-3102,-740,897,49,-380
-347,-3045,-809,793,21,-170
-368,-2907,-792,711,-19,15
-363,-2758,-690,668,-23,63
-399,-2623,-672,658,80,-78
-387,-2507,-676,733,115,-319
-287,-2372,-669,857,66,-541
-240,-2289,-686,952,13,-623
-299,-2282,-791,975,-74,-547
-284,-2263,-938,1027,-102,-427
-238,-2145,-862,1165,-51,-343
-302,-2090,-784,1166,63,-418
-301,-1867,-712,1250,100,-376
-201,-1699,-595,1286,14,-276
-191,-1685,-535,1272,50,-369
-203,-1610,-530,1355,67,-599
-145,-1541,-544,1479,71,-774
-90,-1478,-490,1554,25,-795
-87,-1356,-372,1579,-67,-741
-74,-1237,-277,1544,-138,-682
-77,-1155,-183,1472,-164,-626
-99,-1044,-94,1398,-174,-607
-122,-959,-8,1320,-182,-646
-138,-913,18,1233,-189,-720
-140,-935,-76,1143,-197,-777
3,-993,-195,1077,-163,-773
131,-1042,-226,1054,-149,-649
151,-1013,-194,1078,-201,-467
121,-900,-92,1138,-299,-335
114,-714,80,1173,-380,-262
161,-504,290,1110,-388,-232
180,-392,493,934,-299,-254
143,-378,562,671,-178,-321
126,-381,556,433,-86,-344
226,-432,534,230,-77,-331
344,-494,440,127,-79,-240
284,-437,403,-48,-102,-100
123,-661,165,-271,-61,-84
120,-736,60,-299,-178,-1
173,-676,61,-300,-285,111
180,-619,94,-354,-308,221
136,-545,145,-442,-303,283
79,-481,197,-554,-251,279
74,-475,189,-710,-142,188
188,-532,141,-868,-17,63
319,-586,99,-1006,41,30
407,-662,52,-1124,71,70
443,-753,-12,-1233,84,138
358,-890,-139,-1315,75,218
275,-1059,-318,-1336,65,273
218,-1255,-514,-1271,51,292
209,-1330,-568,-1109,25,279
196,-1277,-445,-965,35,280
99,-1270,-309,-940,90,327
-60,-1311,-230,-981,98,411
-157,-1319,-147,-1025,2,515
-52,-1254,-81,-1107,-59,631
-15,-1313,-116,-1263,-13,730
-20,-1476,-240,-1408,54,741
4,-1559,-379,-1417,48,648
14,-1680,-503,-1301,133,477
13,-1844,-664,-1115,236,318
-9,-1924,-689,-872,212,239
-75,-1916,-573,-693,121,216
-262,-1857,-437,-618,42,275
-449,-1795,-328,-697,-38,346
-451,-1853,-325,-908,19,320
-323,-2127,-565,-1170,197,171
-70,-2393,-829,-1272,297,-28
130,-2492,-896,-1219,311,-146
157,-2555,-880,-1140,355,-146
178,-2570,-845,-1029,268,-16
186,-2452,-705,-902,68,230
113,-2408,-541,-884,-29,511
-62,-2642,-658,-1016,-40,735
-142,-2846,-778,-1088,-145,952
-252,-2971,-816,-1156,-192,1078
-429,-3141,-944,-1240,-91,945
-410,-3287,-1057,-1227,68,632
-203,-3332,-1029,-1146,222,291
-38,-3319,-990,-1032,323,78
44,-3315,-905,-890,343,36
82,-3397,-843,-775,308,137
-20,-3523,-930,-677,172,358
-212,-3617,-1047,-594,24,590
-387,-3604,-1073,-535,-64,725
-540,-3543,-1011,-496,-69,675
-583,-3490,-992,-463,-11,420
-453,-3453,-1023,-382,51,116
-246,-3376,-1018,-251,55,-57
-24,-3275,-956,-144,67,-89
67,-3234,-927,-76,92,-47
37,-3243,-919,9,87,29
-8,-3212,-914,123,54,76
-53,-3132,-877,240,13,70
-121,-3060,-828,318,0,5
-157,-3073,-850,349,46,-119
-130,-3142,-899,375,80,-254
-123,-3198,-956,416,81,-342
-100,-3241,-1048,456,92,-373
-52,-3271,-1122,503,87,-329
-27,-3214,-1067,586,55,-229
-30,-3049,-926,671,30,-143
-93,-2868,-753,661,36,-63
-209,-2737,-686,480,48,35
-331,-2691,-702,214,87,140
-392,-2718,-807,12,76,180
-415,-2721,-935,-35,37,84
-387,-2706,-1007,46,26,-141
-279,-2645,-1029,265,17,-455
-142,-2573,-1059,557,4,-744
-108,-2585,-1198,842,26,-902
-89,-2637,-1354,1101,22,-880
-22,-2557,-1341,1342,-26,-738
-6,-2351,-1178,1538,-65,-617
-93,-2132,-974,1636,-40,-605
-131,-1940,-800,1624,76,-707
-100,-1826,-688,1531,211,-822
-34,-1771,-635,1414,278,-872
66,-1712,-571,1316,317,-849
155,-1647,-476,1261,295,-751
172,-1526,-351,1241,175,-596
44,-1439,-266,1221,65,-444
-7,-1360,-233,1187,-64,-335
25,-1276,-186,1118,-130,-278
54,-1257,-144,1017,-135,-253
33,-1269,-183,933,-123,-262
5,-1303,-248,909,-116,-298
-14,-1280,-263,936,-86,-344
1,-1199,-233,956,-31,-385
13,-1127,-168,946,6,-394
-19,-1070,-120,916,7,-367
-25,-976,-46,876,-28,-322
-18,-889,54,805,-70,-272
-45,-871,102,698,-111,-208
-5,-872,117,606,-160,-149
55,-820,139,521,-206,-93
111,-862,98,362,-170,-100
134,-947,41,235,-116,-120
148,-981,28,195,-120,-107
116,-988,26,180,-107,-106
100,-978,39,169,-75,-129
111,-931,85,164,-68,-157
109,-890,131,134,-86,-177
116,-842,160,72,-131,-160
123,-807,158,-28,-169,-93
91,-867,90,-174,-178,-21
120,-920,14,-295,-213,19
248,-927,-14,-380,-194,40
314,-991,-38,-473,-99,79
278,-1052,-61,-537,-45,135
235,-1056,-36,-545,-38,165
237,-985,32,-556,-31,178
246,-902,101,-619,-20,205
242,-893,110,-740,11,228
199,-968,20,-867,41,242
132,-1117,-152,-916,40,238
74,-1201,-294,-838,-34,235
-22,-1211,-370,-701,-153,267
6,-1149,-335,-585,-216,257
192,-1069,-277,-561,-148,187
322,-1092,-297,-626,21,106
278,-1220,-357,-736,214,79
169,-1306,-393,-805,264,109
114,-1312,-371,-817,160,192
73,-1285,-341,-779,49,297
-51,-1247,-336,-712,-14,373
-267,-1245,-328,-677,-104,379
-509,-1299,-322,-699,-246,276
