ax,ay,az,gx,gy,gz
291,172,731,1198,76,-373
367,139,736,661,103,-396
452,-15,587,133,206,-415
540,-191,414,-248,233,-364
608,-343,299,-455,175,-245
621,-414,227,-525,93,-59
576,-460,179,-522,-14,187
484,-518,155,-471,-157,460
352,-546,156,-394,-316,716
298,-503,193,-332,-434,922
301,-445,258,-306,-511,1083
261,-359,401,-317,-588,1197
180,-215,538,-392,-613,1185
127,-204,523,-594,-457,981
151,-304,386,-857,-206,672
88,-544,157,-1063,20,382
46,-802,-98,-1161,188,115
91,-932,-279,-1137,265,-106
164,-962,-357,-1082,304,-223
205,-1002,-377,-1053,314,-264
236,-1019,-394,-1033,305,-235
278,-1133,-488,-990,294,-156
301,-1262,-614,-838,193,-30
355,-1153,-550,-561,17,147
234,-950,-314,-364,-195,364
17,-785,-124,-336,-381,543
-143,-718,0,-460,-579,684
-346,-708,86,-671,-820,795
-578,-951,-159,-963,-957,770
-671,-1569,-800,-1206,-867,537
-268,-2167,-1493,-1248,-647,224
249,-2436,-1790,-1165,-469,88
389,-2433,-1698,-1162,-204,229
227,-2321,-1360,-1145,62,568
101,-2019,-880,-1014,-27,894
67,-1676,-318,-1012,-219,1072
20,-1679,36,-1207,-251,1171
23,-2077,-82,-1467,-339,1343
71,-2770,-710,-1674,-535,1563
86,-3660,-1561,-1642,-647,1786
5,-4207,-2175,-1198,-649,1922
-354,-4246,-2087,-606,-394,1873
-701,-3885,-1501,-220,-124,1555
-701,-3223,-824,-94,-56,1092
-761,-2724,-243,-232,75,656
-905,-2609,79,-560,314,182
-801,-2830,13,-928,443,-267
-481,-3258,-364,-1193,328,-409
-134,-3659,-846,-1328,146,-191
40,-4005,-1278,-1332,18,127
136,-4177,-1563,-1069,-81,288
103,-4088,-1530,-588,-98,243
37,-3713,-1298,-116,-67,124
25,-3246,-974,184,-74,143
-28,-2909,-693,263,-70,247
-137,-2741,-517,239,-40,253
-226,-2690,-494,199,-28,147
-233,-2761,-587,142,-13,39
-173,-2919,-731,50,32,-32
-116,-3108,-924,10,63,-92
-65,-3256,-1066,99,74,-152
-32,-3311,-1130,255,96,-207
-61,-3388,-1168,408,164,-251
-82,-3415,-1224,574,191,-288
-84,-3365,-1210,759,189,-324
-162,-3300,-1121,915,177,-360
-266,-3232,-1022,1018,154,-414
-356,-3197,-991,1053,139,-497
-369,-3188,-1059,1051,131,-592
-338,-3077,-1028,1078,97,-680
-272,-2875,-848,1090,110,-779
-201,-2702,-694,1024,162,-855
-140,-2618,-677,905,131,-808
-84,-2571,-735,790,11,-613
-49,-2606,-862,692,-95,-362
7,-2571,-974,671,-163,-137
-79,-2499,-951,743,-108,23
-209,-2514,-980,837,-74,-84
-209,-2473,-1048,1038,-36,-444
-316,-2355,-930,1312,25,-784
-292,-2104,-788,1447,34,-954
-171,-1905,-692,1396,-8,-884
-137,-1769,-553,1235,-80,-708
-111,-1623,-485,1054,-145,-564
-85,-1520,-510,935,-104,-451
-119,-1486,-502,854,-29,-353
-55,-1371,-499,730,61,-347
-65,-1343,-529,603,204,-359
-72,-1384,-601,528,184,-388
9,-1374,-653,555,152,-420
67,-1294,-591,671,139,-399
47,-1193,-476,812,52,-341
-6,-1055,-333,932,-39,-298
-17,-944,-177,987,-76,-297
-6,-839,-115,980,-66,-302
-23,-774,-55,946,-90,-256
-10,-722,-9,884,-151,-210
13,-689,-25,785,-166,-167
49,-678,-12,688,-130,-137
131,-640,22,598,-92,-123
145,-651,63,493,-18,-119
169,-666,46,394,104,-191
186,-702,45,311,224,-273
225,-698,51,252,185,-289
245,-658,90,146,133,-234
275,-643,115,1,112,-155
322,-643,127,-125,129,-103
302,-699,105,-220,135,-55
309,-722,81,-275,121,21
355,-653,138,-311,42,145
330,-617,204,-400,-5,264
243,-672,182,-522,-18,326
229,-727,136,-633,-15,346
269,-791,46,-759,1,375
260,-892,-42,-888,19,438
204,-997,-107,-1018,38,503
134,-1144,-193,-1119,72,492
141,-1195,-238,-1150,89,399
199,-1249,-288,-1169,103,333
196,-1301,-369,-1182,102,367
146,-1328,-425,-1148,77,467
77,-1315,-411,-1096,13,569
24,-1245,-278,-1050,-40,621
-26,-1171,-162,-1084,-26,579
-44,-1173,-138,-1203,95,438
-82,-1308,-261,-1387,255,269
-83,-1535,-524,-1553,344,157
-25,-1725,-732,-1620,314,151
53,-1786,-860,-1569,220,223
92,-1843,-951,-1525,194,354
41,-1886,-978,-1444,162,517
17,-1903,-919,-1303,73,637
36,-1861,-797,-1182,-11,708
-27,-1871,-709,-1137,-101,734
-192,-1963,-702,-1202,-125,698
-393,-2167,-932,-1395,-53,625
-452,-2419,-1243,-1567,18,526
-401,-2611,-1456,-1618,101,439
-325,-2680,-1516,-1529,159,346
-260,-2589,-1400,-1336,184,200
-183,-2439,-1209,-1136,254,55
-95,-2368,-1061,-989,293,22
3,-2297,-933,-878,165,202
-3,-2264,-786,-835,-64,550
-167,-2326,-776,-942,-255,877
-446,-2578,-1031,-1163,-300,1010
-626,-2971,-1444,-1327,-197,908
-601,-3236,-1725,-1281,-112,705
-499,-3284,-1744,-1063,-89,481
-433,-3273,-1653,-843,-3,249
-315,-3249,-1525,-683,124,59
-185,-3225,-1424,-569,178,-41
-95,-3245,-1409,-472,165,-47
14,-3265,-1426,-371,111,28
63,-3306,-1465,-277,55,151
17,-3337,-1490,-161,5,252
13,-3294,-1437,-28,-12,261
11,-3276,-1431,76,64,190
-6,-3334,-1502,172,153,108
-10,-3351,-1535,317,171,83
6,-3237,-1424,487,141,93
-8,-3110,-1289,606,152,83
-91,-3065,-1242,676,168,59
-196,-3033,-1192,739,146,36
-301,-3023,-1202,752,128,-4
-314,-3059,-1307,732,110,-54
-314,-3089,-1391,760,99,-108
-348,-3059,-1419,841,105,-187
-379,-2996,-1416,958,113,-261
-358,-2897,-1335,1078,100,-303
-355,-2828,-1302,1148,107,-354
-336,-2788,-1312,1191,81,-376
-300,-2659,-1212,1243,40,-291
-281,-2541,-1105,1246,-31,-263
-320,-2422,-1062,1250,-30,-335
-321,-2264,-963,1282,-81,-398
-240,-2003,-763,1289,-168,-467
-279,-1802,-625,1204,-128,-535
-329,-1795,-714,1060,-58,-614
-292,-1893,-934,980,16,-679
-157,-2003,-1144,1015,31,-650
-14,-2042,-1259,1151,28,-507
6,-1971,-1214,1319,-14,-286
-119,-1862,-1134,1475,-122,-102
-228,-1679,-942,1611,-135,-88
-262,-1462,-718,1642,-70,-264
-281,-1289,-548,1628,47,-522
-240,-1167,-413,1598,147,-754
-151,-1072,-286,1538,181,-890
-83,-1002,-169,1449,178,-917
-62,-964,-106,1323,142,-867
-27,-988,-140,1164,121,-789
-21,-1071,-231,1033,104,-676
-65,-1150,-374,956,56,-551
-35,-1200,-475,925,-20,-436
25,-1239,-480,952,-74,-357
57,-1181,-377,1013,-61,-343
66,-1059,-225,1062,-24,-362
70,-985,-98,1055,7,-411
95,-880,5,1029,40,-446
144,-754,138,964,80,-431
190,-679,238,839,113,-389
206,-629,338,699,84,-307
225,-575,401,521,-60,-179
203,-571,349,303,-169,-63
170,-642,235,103,-206,-3
172,-743,106,-36,-180,-8
218,-808,2,-101,-154,-25
288,-788,12,-137,-113,-34
310,-749,71,-202,-39,-60
281,-727,103,-294,18,-81
263,-718,121,-413,24,-84
290,-736,128,-562,29,-53
289,-818,42,-729,6,9
231,-927,-73,-847,-83,78
227,-1049,-187,-885,-195,115
357,-1065,-252,-868,-259,156
406,-1117,-290,-882,-224,270
302,-1192,-348,-904,-184,428
197,-1239,-375,-907,-180,519
143,-1286,-410,-896,-117,493
116,-1285,-401,-859,-46,457
45,-1291,-368,-847,10,466
-72,-1311,-364,-849,-4,500
-153,-1288,-338,-838,-87,560
-203,-1256,-295,-861,-201,642
-157,-1218,-252,-967,-282,717
-109,-1289,-329,-1194,-266,763
-163,-1472,-520,-1461,-217,751
-236,-1715,-777,-1663,-137,646
-191,-1942,-1024,-1742,-15,437
-90,-2104,-1160,-1689,98,224
-30,-2207,-1169,-1577,169,118
1,-2285,-1137,-1469,182,116
36,-2350,-1118,-1377,128,211
51,-2396,-1049,-1324,40,411
34,-2420,-994,-1342,-34,606
-40,-2469,-1016,-1402,-54,695
-120,-2543,-1102,-1450,9,648
-183,-2611,-1201,-1412,69,508
-183,-2645,-1238,-1299,141,336
-81,-2635,-1210,-1167,225,204
-9,-2625,-1090,-1042,257,169
13,-2640,-999,-959,200,249
18,-2608,-965,-912,56,423
-59,-2552,-924,-886,-89,608
-177,-2499,-889,-872,-148,664
-265,-2479,-882,-863,-149,580
-362,-2469,-844,-856,-132,437
-463,-2487,-871,-883,-70,245
-457,-2654,-1006,-939,26,30
-242,-2893,-1156,-976,50,-91
-41,-3057,-1277,-929,-23,-75
53,-3165,-1395,-826,-70,5
65,-3256,-1441,-678,-90,108
45,-3260,-1425,-508,-126,221
-7,-3243,-1408,-366,-151,289
-123,-3304,-1428,-260,-106,261
-181,-3389,-1471,-139,-52,166
-142,-3438,-1500,-1,-33,81
-100,-3482,-1519,130,-3,38
-89,-3495,-1537,264,26,15
-49,-3459,-1514,411,26,13
-70,-3383,-1439,552,16,20
-119,-3296,-1363,670,22,2
-188,-3264,-1337,744,43,-32
-241,-3282,-1400,789,46,-63
-277,-3274,-1480,865,31,-91
-291,-3188,-1485,965,31,-116
-290,-3067,-1407,1055,50,-161
-300,-2879,-1267,1129,68,-197
-311,-2732,-1165,1142,64,-212
-275,-2619,-1106,1140,7,-254
-220,-2450,-1030,1173,-35,-325
-157,-2238,-938,1148,-56,-349
-137,-2108,-878,1026,-81,-290
-220,-2081,-868,890,-77,-228
-302,-2033,-875,818,-101,-229
-333,-2017,-908,772,-165,-251
-324,-2034,-984,738,-237,-267
-325,-2037,-1126,818,-239,-310
-321,-2016,-1174,1032,-251,-390
-242,-1887,-1149,1252,-241,-484
-168,-1730,-1060,1426,-135,-559
-208,-1624,-971,1530,-13,-609
-250,-1471,-813,1628,52,-676
-310,-1367,-657,1643,154,-783
-269,-1293,-546,1588,239,-906
-199,-1239,-489,1519,302,-994
-174,-1251,-455,1436,292,-998
-104,-1259,-464,1341,207,-902
-19,-1245,-464,1259,74,-734
25,-1170,-390,1205,-67,-561
27,-1140,-345,1147,-142,-471
25,-1165,-399,1110,-108,-484
108,-1110,-371,1121,-85,-516
172,-1050,-274,1132,-68,-525
152,-1022,-213,1106,-44,-520
135,-973,-146,1051,-42,-504
168,-918,-89,963,-7,-482
210,-852,-6,856,12,-448
256,-802,71,735,40,-405
281,-773,120,606,39,-337
314,-719,177,490,9,-253
366,-649,255,375,13,-174
333,-613,316,245,68,-112
278,-638,298,117,49,-51
317,-676,228,-13,-61,12
376,-704,140,-142,-111,87
373,-742,101,-254,-123,167
309,-749,114,-348,-112,210
220,-764,100,-444,-77,194
185,-808,56,-550,-60,162
183,-881,3,-678,-42,161
150,-976,-78,-800,-45,181
142,-1065,-158,-884,-62,194
183,-1204,-276,-908,-91,181
232,-1251,-381,-866,-120,196
253,-1263,-424,-807,-126,262
246,-1257,-439,-739,-123,317
240,-1210,-398,-664,-93,345
169,-1184,-341,-608,-54,392
38,-1195,-296,-616,-80,466
-90,-1198,-278,-714,-135,524
-214,-1253,-326,-871,-125,518
-241,-1343,-431,-1050,-67,437
-192,-1494,-588,-1224,58,288
-146,-1703,-788,-1319,204,96
-53,-1846,-924,-1301,285,-56
44,-1888,-944,-1189,271,-120
154,-1804,-827,-1045,228,-91
197,-1673,-632,-945,188,37
125,-1625,-478,-938,102,227
6,-1661,-409,-1020,-71,394
-71,-1787,-496,-1161,-250,514
-97,-2051,-737,-1303,-400,621
-75,-2330,-1026,-1385,-445,709
-44,-2601,-1303,-1356,-394,743
14,-2745,-1441,-1190,-314,717
14,-2703,-1378,-927,-219,633
-16,-2503,-1122,-676,-131,467
-56,-2255,-785,-520,-57,229
-16,-2080,-456,-517,53,0
53,-2108,-290,-690,147,-110
117,-2384,-465,-942,98,-16
195,-2763,-839,-1122,-116,289
158,-3094,-1214,-1166,-330,667
-2,-3286,-1434,-1090,-432,894
-162,-3289,-1444,-931,-331,812
-320,-3195,-1353,-734,-128,510
-419,-3119,-1257,-548,-12,184
-289,-2963,-1059,-413,-13,-47
-5,-2833,-872,-389,-21,-136
74,-2910,-859,-472,18,-67
-4,-3086,-1017,-527,-24,61
-76,-3215,-1180,-496,-117,189
-133,-3293,-1286,-419,-177,282
-198,-3356,-1342,-319,-163,280
-246,-3422,-1371,-178,-114,176
-224,-3453,-1383,2,-74,26
-172,-3412,-1320,178,-35,-101
-131,-3363,-1232,296,6,-158
-84,-3342,-1188,366,34,-179
-31,-3339,-1173,443,46,-206
-28,-3338,-1176,534,42,-206
-72,-3359,-1223,605,35,-173
-114,-3372,-1302,684,16,-138
-120,-3288,-1274,800,-10,-133
-96,-3132,-1170,911,-12,-158
-78,-3011,-1092,987,3,-199
-81,-2915,-1059,1042,8,-225
-90,-2847,-1074,1087,12,-224
-24,-2763,-1086,1127,34,-194
-11,-2605,-1015,1172,27,-84
-34,-2456,-938,1166,7,81
-14,-2224,-835,1167,-52,223
2,-2052,-709,1151,-82,313
-67,-2002,-635,1137,-108,258
-121,-1896,-558,1198,-97,-34
-149,-1795,-496,1234,-22,-382
-195,-1781,-533,1181,56,-592
-273,-1914,-729,1039,113,-633
-277,-2147,-1045,936,113,-580
-225,-2321,-1295,977,44,-449
-128,-2245,-1292,1152,-64,-261
-51,-2021,-1060,1334,-127,-145
-86,-1763,-752,1463,-100,-163
-186,-1623,-563,1498,-26,-275
-229,-1526,-434,1484,-2,-402
-231,-1395,-263,1436,-8,-507
-228,-1322,-167,1283,17,-577
-247,-1377,-216,1070,31,-606
-248,-1455,-343,912,-8,-615
-158,-1493,-476,853,-51,-605
-30,-1477,-524,881,-99,-568
12,-1421,-500,971,-117,-530
64,-1284,-408,1075,-95,-518
93,-1118,-241,1169,-65,-514
70,-958,-87,1222,-39,-541
27,-785,63,1193,-31,-553
19,-672,188,1087,-48,-574
35,-614,248,928,-44,-601
82,-604,217,732,-41,-603
188,-592,175,590,-79,-578
302,-527,177,501,-97,-524
378,-433,225,437,-94,-466
467,-342,285,377,-49,-462
547,-232,373,284,35,-443
508,-194,417,124,118,-386
483,-228,378,-71,187,-355
452,-275,343,-250,195,-306
424,-319,299,-441,147,-173
458,-422,237,-648,85,9
414,-575,74,-818,-6,208
341,-722,-76,-905,-106,392
232,-849,-184,-938,-199,549
163,-962,-267,-941,-283,656
140,-1033,-338,-915,-362,680
145,-1042,-372,-874,-396,656
178,-1035,-363,-871,-345,617
180,-991,-327,-910,-217,533
182,-970,-298,-1028,28,389
154,-1051,-294,-1222,282,224
89,-1219,-402,-1402,414,103
101,-1350,-505,-1478,382,115
135,-1438,-544,-1503,253,252
115,-1528,-650,-1513,115,391
66,-1621,-761,-1485,12,533
6,-1670,-789,-1439,-105,705
-91,-1662,-762,-1382,-253,833
-237,-1682,-750,-1324,-420,847
-255,-1658,-719,-1270,-576,729
-42,-1523,-562,-1243,-669,585
307,-1405,-397,-1379,-520,458
478,-1656,-482,-1730,-30,413
411,-2261,-896,-2065,307,564
161,-2841,-1347,-2129,259,908
-43,-3093,-1619,-1916,7,1343
-234,-3134,-1693,-1625,-202,1753
-430,-3031,-1583,-1373,-236,1951
-710,-2866,-1343,-1160,-123,1798
-1027,-2711,-1101,-1027,87,1342
-1196,-2670,-946,-1023,327,722
-1109,-2793,-900,-1098,497,191
-809,-3000,-963,-1176,464,-74
-572,-3223,-1108,-1185,285,-63
-425,-3348,-1260,-1137,100,99
-322,-3335,-1317,-1004,-33,267
-314,-3209,-1249,-827,-110,378
-380,-3062,-1164,-666,-128,412
-418,-2908,-1098,-526,-141,379
-374,-2734,-1014,-405,-171,325
-307,-2548,-887,-341,-177,256
-333,-2453,-722,-364,-135,140
-437,-2593,-767,-499,-19,-56
-470,-2912,-1033,-634,50,-255
-429,-3219,-1253,-637,14,-349
-325,-3443,-1468,-535,-28,-353
-219,-3610,-1657,-361,-51,-308
-160,-3715,-1734,-124,-47,-256
-128,-3692,-1702,152,-55,-225
-110,-3564,-1556,428,-79,-202
-154,-3418,-1394,617,-75,-207
-210,-3353,-1295,704,-40,-264
-278,-3335,-1267,750,-11,-344
-302,-3339,-1326,781,18,-435
-282,-3349,-1421,842,38,-518
-287,-3303,-1438,957,41,-577
-314,-3216,-1415,1087,40,-639
-289,-3129,-1397,1209,34,-706
-219,-3035,-1351,1323,5,-712
-180,-2935,-1344,1410,-47,-659
-139,-2799,-1316,1493,-98,-583
-107,-2610,-1215,1585,-130,-525
-96,-2414,-1082,1653,-133,-508
-94,-2261,-983,1673,-130,-504
-115,-2114,-892,1674,-168,-473
-158,-1945,-757,1667,-245,-430
-242,-1785,-639,1614,-319,-422
-221,-1672,-630,1520,-385,-468
-205,-1587,-554,1416,-413,-539
-366,-1629,-650,1263,-330,-679
-469,-1819,-1002,1138,-197,-877
-392,-1970,-1223,1181,-112,-1011
-298,-1952,-1256,1343,-54,-1084
-173,-1831,-1182,1528,10,-1169
-1,-1663,-978,1702,101,-1242
69,-1481,-800,1811,162,-1238
91,-1325,-678,1866,151,-1127
102,-1185,-493,1876,71,-930
137,-1032,-305,1824,-19,-731
179,-939,-134,1727,-102,-565
157,-880,-46,1579,-224,-435
123,-861,-47,1388,-288,-327
142,-887,-55,1236,-298,-268
216,-833,-25,1149,-307,-263
258,-785,12,1058,-238,-305
262,-783,15,973,-122,-365
306,-737,45,924,-37,-415
366,-634,138,880,18,-422
401,-513,257,795,75,-385
391,-448,372,648,140,-332
393,-407,465,509,153,-282
494,-275,574,354,138,-196
522,-230,694,158,95,-75
534,-178,712,-68,0,-14
509,-230,641,-312,-29,40
439,-340,530,-542,-51,100
352,-447,383,-714,-91,129
319,-567,209,-824,-108,119
333,-684,69,-901,-128,135
324,-792,-19,-896,-140,156
327,-844,-49,-869,-171,163
351,-842,4,-857,-231,224
358,-805,68,-881,-316,338
318,-797,84,-981,-414,461
272,-812,49,-1150,-427,565
236,-889,-65,-1364,-337,614
174,-1057,-248,-1571,-163,559
82,-1321,-494,-1670,79,376
30,-1506,-671,-1615,293,115
24,-1650,-806,-1497,439,-97
109,-1722,-786,-1347,444,-109
176,-1693,-655,-1226,309,109
145,-1647,-576,-1199,103,453
36,-1643,-514,-1253,-99,787
-109,-1661,-526,-1364,-214,979
-279,-1766,-673,-1503,-197,954
-409,-1992,-940,-1612,-82,758
-354,-2174,-1156,-1616,27,511
-207,-2177,-1158,-1507,71,331
-142,-2139,-1073,-1402,121,226
-162,-2193,-1004,-1349,172,183
-140,-2266,-1015,-1310,102,262
-127,-2358,-1049,-1264,-97,495
-163,-2395,-1067,-1212,-317,774
-234,-2316,-1009,-1184,-457,982
-296,-2297,-973,-1238,-460,1076
-233,-2344,-997,-1299,-434,1031
-83,-2397,-1068,-1300,-398,924
46,-2492,-1157,-1251,-324,854
166,-2504,-1170,-1143,-272,846
121,-2395,-1034,-1019,-187,865
-39,-2284,-886,-957,-125,850
-291,-2245,-832,-983,-64,763
-482,-2304,-866,-1043,-17,617
-562,-2426,-955,-1101,-39,455
-529,-2563,-1053,-1137,-85,298
-393,-2706,-1170,-1149,-120,164
-209,-2809,-1252,-1128,-145,84
-90,-2921,-1352,-1081,-140,74
-27,-3060,-1487,-1003,-143,108
28,-3150,-1577,-852,-178,155
45,-3137,-1530,-658,-189,184
48,-3093,-1430,-508,-133,165
19,-3145,-1409,-421,-59,129
-9,-3266,-1452,-353,-20,108
-34,-3398,-1533,-269,-6,105
-58,-3511,-1610,-159,-7,118
-107,-3561,-1636,-7,-17,137
-161,-3551,-1617,171,-6,114
-172,-3515,-1605,334,35,46
-172,-3500,-1635,491,69,-22
-153,-3440,-1617,675,82,-76
-133,-3278,-1465,868,77,-126
-153,-3118,-1324,986,107,-187
-237,-3087,-1319,1014,174,-256
-340,-3107,-1365,1041,218,-337
-388,-3064,-1363,1113,226,-433
-373,-2966,-1314,1187,211,-526
-368,-2882,-1263,1231,193,-580
-380,-2801,-1227,1248,175,-606
-354,-2755,-1309,1243,158,-600
-322,-2802,-1449,1272,150,-544
-272,-2754,-1463,1384,106,-479
-208,-2574,-1354,1541,64,-482
-144,-2355,-1165,1664,91,-540
-114,-2190,-972,1717,162,-601
-145,-2043,-831,1708,206,-640
-178,-1957,-742,1638,200,-629
-171,-1972,-719,1531,110,-585
-99,-1934,-690,1476,-35,-495
-69,-1879,-701,1423,-198,-282
-156,-1883,-809,1389,-391,3
-301,-1885,-895,1390,-518,184
-361,-1786,-861,1435,-531,150
-350,-1639,-711,1475,-412,-75
-322,-1479,-536,1436,-147,-374
-325,-1492,-483,1327,57,-663
-228,-1488,-515,1277,41,-881
-79,-1396,-514,1263,-25,-955
27,-1274,-464,1226,-60,-877
67,-1147,-357,1160,-66,-791
110,-981,-227,1097,-47,-800
122,-888,-181,1045,-7,-852
140,-871,-203,998,45,-891
178,-864,-190,964,77,-886
198,-849,-155,927,84,-837
202,-887,-199,867,70,-748
208,-941,-267,793,-14,-591
194,-964,-281,733,-96,-421
152,-960,-270,692,-132,-325
173,-917,-231,669,-121,-331
246,-828,-140,660,-88,-383
305,-727,-30,625,-29,-424
336,-641,52,543,66,-453
361,-567,109,444,134,-449
376,-486,202,338,155,-404
376,-420,317,204,183,-334
384,-418,354,62,184,-244
448,-368,404,-41,97,-103
432,-326,475,-170,-14,115
447,-302,492,-341,-171,350
409,-318,458,-521,-285,544
333,-377,343,-685,-317,638
325,-424,280,-830,-261,638
328,-461,277,-992,-149,558
326,-537,216,-1153,19,384
355,-621,137,-1267,144,230
353,-730,31,-1367,163,252
272,-906,-127,-1464,77,457
198,-1100,-284,-1519,-76,721
186,-1202,-395,-1513,-227,972
120,-1266,-472,-1515,-304,1168
-29,-1340,-559,-1541,-259,1211
-195,-1398,-622,-1538,-94,1012
-269,-1358,-610,-1518,122,633
-236,-1342,-559,-1515,372,198
-82,-1423,-555,-1554,574,-117
156,-1532,-644,-1582,515,-125
305,-1596,-693,-1570,223,207
221,-1662,-720,-1609,-26,636
31,-1714,-842,-1700,-100,930
-153,-1830,-982,-1819,-87,1054
-359,-1997,-1149,-1932,-1,993
-453,-2138,-1280,-2009,195,770
-225,-2203,-1321,-2069,454,514
-16,-2374,-1298,-2137,684,355
40,-2708,-1488,-2174,733,385
157,-2878,-1666,-2016,437,740
183,-2769,-1550,-1745,-30,1396
-120,-2588,-1357,-1561,-406,1991
-616,-2495,-1338,-1505,-531,2137
-917,-2509,-1423,-1507,-429,1857
-1027,-2550,-1453,-1535,-278,1376
-880,-2553,-1464,-1591,-27,809
-579,-2664,-1505,-1617,262,349
-289,-2791,-1551,-1559,279,199
-126,-2766,-1507,-1408,155,308
-201,-2729,-1456,-1265,66,488
-399,-2797,-1518,-1181,-2,587
-481,-2851,-1592,-1083,-84,594
-515,-2868,-1614,-974,-148,530
-527,-2945,-1682,-906,-130,374
-474,-3075,-1751,-832,-75,160
-347,-3199,-1849,-699,-13,-31
-206,-3239,-1894,-507,-7,-106
-184,-3291,-1885,-329,-29,-82
-202,-3295,-1875,-152,-54,-45
-238,-3264,-1835,19,-76,-19
-314,-3284,-1794,134,-74,-26
-381,-3380,-1862,220,-31,-100
-345,-3491,-1979,346,-23,-190
-269,-3537,-2032,508,-49,-221
-277,-3582,-2116,678,-57,-227
-270,-3556,-2164,901,-75,-254
-219,-3432,-2093,1141,-65,-286
-251,-3305,-1979,1323,-16,-323
-345,-3222,-1913,1464,21,-368
-445,-3178,-1913,1584,22,-411
-509,-3174,-1992,1686,29,-467
-543,-3122,-2000,1818,39,-536
-607,-2989,-1937,1969,52,-642
-585,-2838,-1879,2095,94,-788
-492,-2681,-1798,2221,112,-889
-400,-2436,-1635,2359,121,-943
-347,-2187,-1418,2445,168,-1002
-381,-2063,-1355,2437,203,-1048
-352,-1968,-1334,2414,174,-1037
-313,-1839,-1234,2401,124,-987
-235,-1676,-1155,2368,115,-964
-147,-1530,-1039,2321,143,-960
-142,-1377,-874,2281,179,-968
-173,-1212,-661,2256,206,-1006
-236,-1117,-509,2199,223,-1052
-180,-1064,-485,2101,143,-1040
-52,-1011,-463,1993,1,-918
34,-914,-355,1860,-51,-773
50,-903,-312,1682,18,-732
65,-946,-337,1538,95,-782
111,-931,-333,1498,150,-830
158,-883,-260,1484,236,-855
171,-844,-222,1541,330,-758
136,-769,-81,1553,308,-531
132,-777,-27,1406,236,-492
131,-758,18,1289,104,-480
100,-723,32,1175,-54,-377
59,-666,66,1032,-161,-213
54,-643,81,842,-169,-131
53,-712,41,635,-117,-127
58,-838,-75,489,-71,-194
151,-900,-145,460,-39,-283
267,-866,-102,501,-20,-313
322,-745,18,537,-6,-304
302,-594,195,523,20,-287
291,-449,392,453,46,-262
304,-371,495,288,57,-191
287,-341,570,81,5,-28
287,-320,611,-125,-101,166
280,-353,559,-357,-197,333
260,-454,449,-563,-264,471
247,-543,355,-720,-299,568
230,-621,272,-850,-266,560
263,-713,210,-951,-161,440
328,-763,192,-1020,-39,276
388,-813,150,-1074,54,161
402,-896,89,-1125,75,156
323,-994,4,-1185,26,271
276,-1097,-116,-1245,-87,474
245,-1187,-190,-1290,-226,714
129,-1242,-220,-1339,-324,907
-62,-1284,-253,-1400,-343,972
-157,-1320,-312,-1473,-271,854
-172,-1352,-338,-1550,-132,631
-193,-1433,-413,-1633,34,385
-157,-1604,-518,-1684,175,170
-24,-1755,-633,-1681,191,84
61,-1866,-785,-1673,34,198
74,-1968,-925,-1666,-136,413
24,-1973,-980,-1643,-224,558
-52,-1954,-1003,-1617,-161,546
-164,-1948,-984,-1571,-50,414
-173,-1915,-915,-1496,52,252
-60,-1918,-828,-1446,110,150
41,-1996,-826,-1449,48,210
131,-2112,-924,-1494,-77,357
84,-2224,-1046,-1566,-191,472
14,-2320,-1189,-1608,-185,520
-94,-2466,-1333,-1576,-115,551
-201,-2579,-1425,-1490,-68,515
-208,-2559,-1409,-1351,-15,364
-142,-2425,-1286,-1202,44,170
-58,-2299,-1065,-1103,63,54
13,-2278,-898,-1098,58,80
51,-2430,-981,-1169,-60,294
-26,-2611,-1209,-1199,-391,703
-133,-2613,-1319,-1188,-708,1164
-334,-2652,-1394,-1232,-803,1436
-532,-2727,-1494,-1287,-671,1291
-651,-2844,-1578,-1283,-310,787
-505,-2844,-1553,-1140,-85,216
-171,-2669,-1399,-964,14,-172
32,-2578,-1195,-880,92,-281
67,-2652,-1164,-895,106,-216
114,-2816,-1301,-908,2,-40
125,-2955,-1436,-858,-165,228
-16,-3067,-1526,-793,-262,426
-180,-3230,-1672,-721,-208,380
-125,-3428,-1800,-575,-83,158
47,-3498,-1829,-350,15,-45
164,-3472,-1781,-112,96,-176
142,-3445,-1692,121,169,-236
116,-3388,-1653,307,183,-240
142,-3346,-1647,450,156,-186
118,-3266,-1560,592,107,-103
23,-3160,-1484,717,97,-84
-102,-3149,-1514,788,148,-150
-173,-3177,-1589,855,195,-233
-178,-3144,-1616,972,203,-289
-137,-3006,-1534,1124,196,-340
-83,-2840,-1419,1259,206,-392
-59,-2700,-1336,1356,224,-427
-57,-2597,-1280,1433,222,-444
-74,-2502,-1245,1493,202,-440
-95,-2394,-1203,1541,182,-439
-132,-2277,-1134,1572,180,-452
-225,-2220,-1094,1568,203,-498
-291,-2229,-1107,1529,242,-584
-309,-2256,-1150,1510,253,-661
-303,-2288,-1226,1523,237,-703
-166,-2280,-1261,1583,206,-704
-32,-2208,-1230,1688,179,-654
-40,-2103,-1167,1796,186,-630
-35,-1959,-1069,1896,225,-700
-17,-1799,-910,1971,271,-772
-100,-1715,-840,1966,300,-808
-132,-1675,-836,1924,303,-844
-68,-1549,-741,1920,279,-820
-76,-1407,-611,1898,252,-759
-123,-1397,-625,1825,235,-748
-109,-1440,-687,1797,205,-746
-116,-1454,-740,1831,149,-712
-101,-1429,-747,1887,95,-671
-133,-1348,-662,1939,13,-641
-155,-1207,-520,1962,-67,-641
-47,-1006,-325,1910,-103,-674
116,-857,-155,1751,-11,-707
129,-859,-96,1509,168,-723
123,-925,-136,1327,269,-777
184,-914,-123,1256,279,-814
280,-842,-51,1200,261,-752
324,-753,71,1139,187,-593
349,-636,203,1026,101,-393
336,-606,293,863,44,-191
286,-602,348,711,-52,-16
243,-614,358,566,-167,117
245,-611,372,434,-253,210
271,-561,400,304,-313,285
294,-497,443,157,-319,329
255,-470,489,-20,-229,307
209,-434,534,-194,-138,211
235,-385,561,-372,-59,87
293,-375,567,-561,0,4
315,-400,531,-768,34,-26
314,-447,469,-969,29,-2
337,-521,375,-1154,-16,67
377,-633,215,-1321,-63,169
388,-776,50,-1435,-120,315
400,-898,-100,-1489,-201,501
365,-1010,-197,-1513,-256,683
266,-1056,-265,-1508,-302,793
169,-1005,-245,-1509,-296,806
31,-945,-164,-1583,-222,730
-96,-985,-138,-1760,-76,549
-136,-1149,-224,-1985,54,329
-64,-1362,-425,-2182,57,188
28,-1570,-637,-2315,9,173
88,-1764,-848,-2380,-32,243
104,-1947,-1060,-2360,-75,315
142,-2074,-1164,-2225,-152,385
189,-2077,-1170,-2033,-222,466
199,-1978,-1061,-1856,-271,558
100,-1884,-903,-1765,-272,664
-78,-1896,-870,-1817,-256,719
-284,-2029,-977,-1936,-265,688
-385,-2223,-1156,-2046,-289,612
-363,-2423,-1335,-2102,-332,527
-281,-2622,-1515,-2097,-352,431
-105,-2731,-1667,-2005,-360,328
77,-2710,-1663,-1810,-322,245
216,-2609,-1528,-1598,-265,212
250,-2532,-1373,-1437,-219,233
182,-2512,-1292,-1329,-219,331
80,-2519,-1276,-1262,-311,507
0,-2493,-1255,-1223,-460,733
-115,-2487,-1254,-1243,-577,929
-267,-2574,-1361,-1326,-588,953
-307,-2728,-1561,-1354,-514,768
-212,-2856,-1735,-1251,-404,497
-58,-2854,-1752,-1049,-314,281
29,-2759,-1626,-827,-254,177
90,-2678,-1441,-671,-214,169
155,-2681,-1398,-595,-251,278
129,-2783,-1488,-550,-352,505
11,-2866,-1569,-481,-457,720
-132,-2923,-1605,-410,-500,779
-265,-3020,-1646,-355,-423,626
-366,-3180,-1745,-296,-272,324
-351,-3310,-1842,-182,-142,-19
-194,-3419,-1882,-6,-41,-324
14,-3452,-1875,204,38,-497
180,-3414,-1850,380,47,-520
284,-3396,-1843,533,66,-513
350,-3358,-1863,711,123,-539
377,-3258,-1873,908,195,-568
332,-3124,-1808,1082,263,-575
284,-2976,-1735,1216,346,-593
247,-2833,-1660,1343,412,-608
209,-2686,-1573,1450,444,-595
195,-2557,-1493,1522,467,-561
156,-2449,-1405,1580,462,-503
92,-2336,-1303,1634,438,-450
14,-2275,-1217,1660,409,-414
-27,-2244,-1207,1652,374,-377
-35,-2236,-1214,1639,339,-338
-64,-2209,-1212,1650,316,-347
-83,-2148,-1175,1690,341,-434
-72,-2070,-1107,1740,364,-538
-28,-1977,-1035,1779,371,-618
3,-1893,-941,1796,366,-650
19,-1818,-803,1780,349,-632
12,-1797,-742,1713,326,-597
1,-1835,-719,1619,304,-539
-38,-1899,-691,1510,266,-457
-80,-1962,-754,1404,217,-410
-82,-2034,-851,1346,183,-408
-105,-2109,-997,1364,193,-433
-58,-2136,-1093,1452,232,-478
25,-2027,-1028,1591,237,-530
80,-1877,-909,1705,284,-601
155,-1721,-781,1774,373,-652
164,-1624,-623,1821,429,-636
125,-1553,-560,1786,430,-584
165,-1572,-610,1704,385,-529
185,-1487,-565,1714,285,-371
141,-1340,-449,1723,206,-213
127,-1190,-305,1704,174,-138
165,-1022,-143,1666,171,-130
150,-893,-8,1587,195,-148
150,-763,136,1454,226,-163
123,-682,293,1280,249,-163
126,-605,406,1072,232,-155
159,-591,460,805,215,-127
160,-615,461,547,183,-82
157,-653,434,344,126,-38
196,-682,390,190,74,0
252,-698,327,67,48,56
229,-785,200,-42,62,128
187,-874,87,-61,33,158
218,-838,80,18,-25,151
259,-721,167,109,-52,151
265,-503,362,141,-78,159
238,-314,521,53,-84,175
206,-193,629,-157,-68,218
134,-152,671,-399,-69,267
104,-145,636,-654,-99,294
134,-218,498,-935,-122,314
153,-384,280,-1187,-127,344
168,-601,23,-1345,-116,359
222,-796,-167,-1379,-102,343
298,-924,-271,-1324,-102,343
327,-955,-262,-1242,-118,382
285,-935,-213,-1211,-109,435
202,-946,-172,-1273,-84,503
114,-1023,-174,-1421,-51,539
74,-1149,-273,-1585,-7,514
97,-1266,-396,-1716,9,470
92,-1387,-520,-1829,42,387
50,-1500,-663,-1901,101,250
23,-1588,-795,-1894,163,112
49,-1688,-927,-1848,222,-31
72,-1771,-1020,-1759,270,-125
113,-1802,-999,-1690,290,-168
135,-1856,-879,-1659,293,-184
129,-1980,-879,-1682,239,-139
134,-2217,-1049,-1719,55,38
182,-2360,-1185,-1705,-181,350
164,-2467,-1295,-1679,-311,667
110,-2558,-1399,-1616,-325,790
53,-2501,-1359,-1442,-245,669
1,-2319,-1188,-1224,-83,414
35,-2132,-980,-1092,34,196
50,-2027,-758,-1068,98,104
30,-2169,-780,-1199,127,119
143,-2548,-1074,-1393,18,304
247,-3014,-1512,-1483,-188,665
247,-3327,-1825,-1375,-365,1007
174,-3376,-1890,-1111,-383,1075
44,-3223,-1666,-762,-249,823
-90,-3010,-1390,-514,-52,427
-96,-2757,-1128,-417,84,97
-28,-2595,-845,-444,126,-75
86,-2627,-781,-574,108,-113
122,-2806,-958,-683,-8,-17
55,-3052,-1187,-715,-155,135
-46,-3189,-1363,-677,-254,203
-194,-3343,-1545,-586,-271,119
-168,-3492,-1762,-457,-152,-68
12,-3480,-1721,-260,-12,-144
104,-3416,-1511,-100,44,-105
168,-3355,-1353,-1,84,-74
235,-3345,-1307,104,78,-39
251,-3318,-1274,213,44,45
194,-3299,-1267,278,18,143
139,-3279,-1266,333,14,183
105,-3258,-1251,408,3,160
55,-3269,-1316,487,12,96
88,-3312,-1453,588,53,14
149,-3277,-1487,748,85,-27
147,-3202,-1412,919,120,-70
130,-3100,-1306,1078,158,-180
100,-3004,-1247,1203,197,-279
51,-2956,-1261,1274,198,-279
38,-2856,-1222,1335,138,-218
15,-2671,-1090,1384,81,-191
-72,-2585,-1049,1368,110,-266
-99,-2577,-1077,1339,135,-359
-54,-2481,-1053,1358,68,-361
-66,-2411,-1066,1374,14,-325
-45,-2436,-1134,1395,23,-363
11,-2418,-1187,1490,72,-473
34,-2333,-1116,1622,133,-563
-6,-2247,-1055,1699,178,-607
21,-2166,-1030,1727,176,-601
62,-2036,-919,1771,122,-553
35,-1881,-806,1798,108,-549
31,-1741,-713,1787,136,-604
90,-1553,-577,1779,159,-648
48,-1442,-442,1715,206,-636
29,-1335,-307,1656,173,-603
30,-1261,-190,1563,96,-556
85,-1226,-171,1424,18,-472
90,-1212,-184,1268,-76,-357
14,-1281,-300,1102,-113,-290
18,-1358,-449,1003,-119,-287
69,-1384,-550,1016,-106,-311
143,-1326,-522,1092,-58,-358
224,-1206,-385,1178,27,-414
262,-1043,-232,1252,105,-372
141,-907,-40,1271,143,-134
