ax,ay,az,gx,gy,gz
134,-1173,56,159,224,14
147,-1101,141,149,17,104
131,-1059,223,82,-122,172
153,-1075,237,-36,-214,185
198,-1085,166,-124,-223,170
204,-1091,153,-145,-177,175
202,-1081,192,-159,-141,193
207,-1100,224,-182,-88,198
160,-1146,225,-193,27,191
111,-1154,183,-190,77,176
93,-1154,206,-177,17,172
47,-1130,282,-202,-48,183
23,-1122,315,-291,-51,183
61,-1147,281,-383,-18,180
131,-1198,132,-458,-71,214
114,-1279,-33,-469,-80,278
37,-1328,-124,-413,75,290
-32,-1352,-11,-354,197,267
-14,-1336,79,-346,143,262
85,-1331,102,-354,-19,299
150,-1381,133,-375,-65,351
149,-1437,139,-435,-80,407
92,-1489,80,-484,-41,459
31,-1492,69,-484,12,500
-27,-1472,97,-507,-50,547
-65,-1635,-1,-553,-139,625
-122,-1801,-173,-507,-167,694
-151,-1742,-253,-371,-434,771
-155,-1754,-213,-290,-585,802
-254,-1785,-227,-311,-204,700
-287,-1738,-189,-347,265,553
-243,-1809,-114,-389,503,467
-182,-1980,-167,-441,497,475
-179,-2089,-199,-421,298,621
-325,-2119,-118,-345,23,825
-524,-2062,13,-319,-123,902
-663,-2060,47,-420,-45,805
-709,-2124,-60,-469,142,688
-787,-2270,-274,-490,211,604
-741,-2395,-490,-423,334,460
-549,-2473,-417,-272,369,302
-388,-2493,-215,-220,313,214
-238,-2521,-203,-278,362,196
-186,-2547,-288,-312,413,275
-220,-2552,-372,-290,343,403
-237,-2547,-421,-256,233,523
-269,-2579,-474,-193,243,613
-314,-2604,-515,-85,264,692
-414,-2559,-469,17,160,750
-548,-2501,-316,71,129,709
-674,-2502,-95,29,348,522
-632,-2561,-97,-60,576,288
-496,-2574,-98,-113,606,121
-367,-2550,-131,-175,641,43
-306,-2572,-278,-201,701,76
-400,-2585,-366,-137,627,146
-446,-2561,-410,-51,293,231
-449,-2587,-413,25,-20,310
-462,-2594,-420,111,-21,310
-437,-2499,-360,195,12,267
-370,-2464,-307,221,-79,277
-348,-2391,-171,230,-179,288
-396,-2299,10,186,-76,226
-387,-2216,97,74,186,134
-310,-2119,113,-22,255,132
-333,-2093,50,-84,112,227
-397,-2109,-64,-117,-80,341
-469,-2088,-138,-129,-119,413
-531,-2069,-146,-152,-16,424
-606,-2101,-103,-194,177,377
-554,-2111,-123,-280,382,311
-496,-2183,-185,-366,539,295
-460,-2255,-270,-412,643,305
-448,-2275,-328,-445,664,346
-439,-2259,-377,-506,654,386
-464,-2286,-429,-580,515,461
-538,-2370,-517,-656,339,548
-616,-2495,-610,-663,234,560
-700,-2454,-509,-599,184,488
-770,-2424,-348,-574,219,407
-767,-2519,-356,-622,155,389
-663,-2644,-443,-642,19,377
-536,-2690,-481,-626,-132,365
-473,-2747,-570,-625,-150,381
-475,-2814,-623,-558,67,362
-480,-2812,-553,-446,195,334
-554,-2863,-515,-396,205,341
-652,-2934,-537,-346,211,318
-671,-2944,-502,-261,71,282
-668,-2954,-493,-197,-129,277
-680,-2962,-464,-133,-223,251
-727,-2956,-465,-77,-260,178
-724,-2923,-440,-30,-280,69
-663,-2874,-372,28,-274,-43
-589,-2813,-269,39,-318,-132
-542,-2796,-296,-12,-271,-217
-507,-2811,-358,-27,-146,-303
-472,-2800,-374,3,-144,-351
-433,-2779,-371,22,-158,-369
-383,-2779,-376,32,-110,-370
-417,-2829,-367,38,-66,-345
-436,-2851,-366,44,-30,-310
-413,-2847,-347,86,-2,-258
-480,-2963,-375,77,-18,-200
-566,-3034,-514,89,-100,-137
-655,-3030,-588,229,-178,-88
-649,-2947,-487,405,-374,-66
-551,-2865,-327,491,-608,-29
-497,-2837,-272,464,-689,42
-538,-2787,-305,419,-608,129
-625,-2743,-365,406,-507,189
-700,-2722,-374,405,-529,203
-776,-2676,-375,421,-399,132
-845,-2590,-350,451,-207,13
-890,-2514,-317,422,-182,-81
-942,-2504,-414,346,-139,-162
-1076,-2519,-579,346,-85,-268
-1102,-2415,-579,463,-264,-402
-974,-2340,-488,536,-587,-525
-746,-2318,-416,505,-824,-570
-688,-2350,-428,452,-815,-540
-754,-2326,-483,470,-629,-510
-774,-2222,-401,534,-517,-502
-790,-2171,-278,530,-448,-521
-808,-2170,-281,409,-336,-557
-873,-2241,-449,331,-161,-614
-838,-2201,-593,443,-183,-664
-775,-2106,-511,611,-395,-671
-706,-1994,-371,657,-578,-667
-703,-1987,-315,596,-616,-650
-715,-2030,-374,561,-593,-652
-649,-2051,-347,594,-688,-655
-584,-2063,-254,627,-776,-664
-542,-2025,-136,626,-708,-688
-438,-1961,-60,573,-509,-731
-376,-1965,48,470,-334,-726
-383,-1980,51,378,-202,-694
-369,-1964,35,346,-270,-657
-278,-1895,69,308,-448,-625
-206,-1899,101,193,-614,-571
-198,-1947,46,74,-595,-519
-240,-1991,-23,22,-525,-499
-244,-2009,-29,28,-496,-526
-278,-2041,-16,22,-416,-604
-288,-2029,-53,4,-368,-691
-195,-1963,-17,16,-275,-784
-110,-1970,-8,-8,-260,-799
64,-1994,-128,1,-349,-732
146,-1949,-48,82,-306,-646
65,-1930,70,85,-146,-585
38,-1886,127,36,-90,-566
164,-1889,124,-37,-105,-562
269,-1935,-27,-73,-51,-503
147,-1937,-43,7,-53,-366
-15,-1879,84,72,-139,-288
-4,-1861,82,41,-120,-315
121,-1823,-41,33,5,-319
23,-1816,-38,77,-41,-244
-14,-1783,29,104,-195,-224
67,-1726,110,102,-186,-272
212,-1664,149,60,-30,-301
301,-1585,180,-9,108,-257
221,-1566,245,-101,184,-173
76,-1578,306,-201,252,-105
4,-1575,280,-299,227,-94
-3,-1578,113,-389,85,-89
30,-1607,-90,-388,-31,-63
85,-1570,-221,-301,-35,-23
30,-1585,-276,-176,102,-3
-21,-1590,-190,-32,138,-3
-8,-1577,-72,47,73,-12
29,-1581,1,61,63,-26
6,-1561,87,36,144,-44
-6,-1509,140,-20,114,-51
30,-1461,161,-107,-85,-31
115,-1398,157,-211,-300,-1
187,-1366,109,-338,-368,23
159,-1463,-127,-432,-252,49
113,-1533,-420,-363,-149,80
47,-1451,-504,-132,-107,93
-74,-1391,-339,95,-35,59
-184,-1405,-159,175,66,8
-287,-1379,-59,190,211,-75
-291,-1318,48,185,209,-201
-161,-1230,131,117,55,-286
-34,-1219,143,-11,-49,-324
69,-1235,109,-138,-27,-320
92,-1278,14,-229,117,-305
43,-1336,-165,-271,204,-262
-6,-1338,-269,-202,165,-196
8,-1326,-329,-84,139,-180
9,-1294,-359,51,186,-176
-27,-1273,-294,193,98,-118
-59,-1212,-201,295,-127,-49
-58,-1197,-111,352,-250,-27
-56,-1200,21,368,-313,-27
-63,-1213,116,325,-384,-47
-46,-1244,180,264,-380,-111
18,-1270,266,193,-194,-222
-14,-1270,319,90,95,-328
-54,-1262,305,-13,178,-383
0,-1262,246,-107,111,-416
109,-1302,144,-179,75,-400
197,-1342,35,-212,98,-346
226,-1347,-65,-189,71,-261
118,-1374,-66,-134,-53,-151
-9,-1405,43,-115,-186,-113
-3,-1433,94,-167,-220,-183
96,-1459,89,-238,-217,-253
174,-1517,84,-284,-220,-280
286,-1552,61,-300,-153,-288
317,-1581,64,-299,-91,-242
271,-1609,63,-309,-37,-174
271,-1576,28,-339,-62,-122
304,-1508,49,-366,-153,-54
352,-1509,72,-410,-237,27
324,-1564,68,-493,-338,104
260,-1609,45,-563,-301,121
209,-1697,-59,-588,-178,111
147,-1814,-162,-560,-135,135
125,-1928,-181,-480,-120,174
98,-2017,-164,-361,-85,230
34,-2062,-162,-285,-118,298
73,-2001,-213,-260,-176,348
71,-2051,-215,-259,-249,413
-21,-2113,-282,-293,-169,439
-69,-2171,-397,-285,127,374
-123,-2186,-377,-216,326,282
-137,-2151,-235,-157,243,224
-95,-2159,-98,-147,164,176
-47,-2215,-6,-207,87,155
73,-2209,46,-304,89,157
223,-2232,-81,-407,137,224
233,-2383,-457,-447,136,396
95,-2480,-776,-302,234,569
-136,-2433,-650,-39,94,674
-307,-2350,-364,82,-200,661
-391,-2358,-171,22,-159,470
-475,-2438,-168,-142,168,150
-408,-2460,-225,-267,672,-195
-203,-2418,-310,-244,952,-361
-21,-2362,-352,-114,628,-240
132,-2277,-234,4,40,21
183,-2288,-150,0,-336,238
141,-2365,-286,-117,-274,319
75,-2401,-504,-201,-24,296
4,-2421,-639,-199,164,225
-18,-2482,-683,-134,470,103
32,-2479,-617,-25,811,-12
137,-2404,-470,86,861,-7
193,-2341,-338,183,629,141
187,-2280,-236,251,307,358
111,-2210,-131,242,121,529
-1,-2213,-192,165,157,588
-90,-2247,-301,101,340,564
-175,-2273,-370,79,486,509
-271,-2313,-368,66,586,407
-317,-2358,-304,29,793,199
-214,-2347,-209,-26,1015,-15
-61,-2315,-174,-71,1007,-75
29,-2354,-237,-91,814,-22
144,-2321,-301,-70,674,84
130,-2256,-363,-28,532,260
-9,-2160,-359,9,400,427
-192,-2089,-260,-3,282,511
-301,-2046,-142,-74,212,474
-308,-2060,-115,-177,144,374
-141,-2108,-211,-246,100,299
32,-2154,-266,-211,10,333
158,-2103,-221,-154,-208,473
162,-2123,-221,-172,-411,687
109,-2195,-212,-201,-573,926
-7,-2196,-227,-230,-524,1085
-208,-2209,-303,-268,-247,1129
-401,-2208,-351,-301,169,1079
-496,-2193,-369,-335,494,969
-490,-2248,-385,-357,661,831
-307,-2286,-426,-340,646,756
-201,-2331,-523,-288,542,850
-257,-2388,-553,-200,378,1042
-416,-2402,-413,-112,72,1195
-625,-2453,-325,-125,-121,1213
-810,-2505,-247,-200,-8,1080
-935,-2535,-173,-302,249,838
-924,-2568,-279,-422,391,581
-781,-2606,-495,-443,342,388
-571,-2579,-446,-360,179,300
-430,-2547,-339,-337,145,293
-401,-2575,-402,-371,202,351
-475,-2642,-495,-345,218,424
-572,-2695,-536,-259,139,444
-647,-2722,-459,-177,-2,411
-731,-2776,-342,-159,-37,318
-757,-2862,-343,-204,78,171
-724,-2976,-471,-215,104,53
-674,-3044,-538,-142,17,-17
-582,-3061,-493,-52,-57,-77
-498,-3068,-489,-3,-81,-124
-458,-3090,-535,45,-117,-158
-423,-3098,-540,113,-160,-195
-380,-3075,-476,188,-144,-240
-339,-3040,-387,225,-108,-275
-298,-3029,-348,219,-44,-293
-298,-3012,-340,189,62,-312
-403,-3081,-459,161,204,-354
-504,-3122,-621,222,274,-410
-534,-3070,-639,372,119,-469
-490,-2991,-520,489,-165,-539
-405,-2942,-430,506,-237,-625
-325,-2892,-403,491,-94,-691
-328,-2888,-372,448,55,-730
-363,-2891,-393,410,59,-726
-353,-2853,-373,428,-60,-709
-273,-2764,-373,441,-99,-690
-323,-2779,-443,428,9,-683
-387,-2783,-537,441,132,-701
-417,-2726,-584,529,193,-705
-458,-2707,-619,629,167,-708
-473,-2686,-611,696,113,-743
-498,-2662,-573,731,253,-833
-515,-2612,-524,770,404,-915
-549,-2590,-490,815,283,-933
-473,-2531,-400,854,-51,-910
-349,-2467,-233,853,-236,-879
-204,-2395,-130,789,-371,-785
-104,-2293,28,720,-554,-602
-68,-2248,-24,583,-599,-418
-84,-2285,-480,460,-470,-256
-256,-2316,-809,517,-414,-130
-470,-2208,-691,680,-624,-117
-531,-2167,-378,700,-848,-289
-446,-2137,-160,566,-587,-556
-316,-2118,-82,430,-142,-751
-192,-2048,-95,369,62,-785
-109,-1944,-96,334,-116,-696
-105,-1887,-109,291,-406,-568
-166,-1889,-222,260,-545,-461
-208,-1907,-254,290,-768,-392
-164,-1911,-93,335,-974,-402
-118,-1942,64,291,-927,-477
1,-1918,78,186,-815,-542
113,-1927,85,100,-804,-553
193,-1889,129,32,-643,-540
250,-1869,105,-46,-346,-515
256,-1907,-38,-111,-128,-446
190,-1867,-107,-106,2,-354
100,-1856,-1,-94,20,-318
80,-1862,41,-142,33,-380
144,-1896,-72,-173,36,-448
166,-1927,-116,-113,-48,-446
119,-1944,-78,-54,-117,-439
64,-1952,21,-36,-167,-452
108,-1939,139,-60,-266,-469
230,-1937,138,-134,-477,-435
368,-1948,55,-184,-670,-336
439,-1954,15,-162,-514,-284
412,-1938,-68,-118,21,-300
355,-1918,-161,-82,347,-254
387,-1919,-232,-16,275,-142
339,-1913,-211,90,147,-17
202,-1861,-136,163,156,76
45,-1790,-15,187,234,80
-66,-1756,115,142,305,-11
-80,-1750,126,41,379,-141
-21,-1708,71,-29,333,-225
-19,-1621,82,-54,98,-208
50,-1543,116,-79,-204,-138
166,-1509,84,-97,-448,-49
278,-1426,86,-100,-646,48
362,-1402,101,-136,-610,128
375,-1376,125,-166,-282,179
331,-1325,103,-206,157,201
148,-1331,57,-254,420,245
61,-1387,-73,-252,495,271
14,-1364,-132,-140,452,300
-54,-1379,-129,-14,261,363
-202,-1407,-150,98,93,390
-274,-1350,-107,200,-46,311
-211,-1267,35,233,-198,181
-12,-1245,111,176,-124,38
65,-1274,130,61,188,-46
7,-1310,109,-49,373,-39
-86,-1348,84,-88,342,-32
-22,-1323,60,-75,232,-74
138,-1299,43,-67,80,-58
181,-1314,23,-76,-115,46
129,-1360,2,-87,-217,111
56,-1405,-57,-110,-88,76
2,-1457,-238,-112,213,-11
-39,-1449,-388,-8,449,-77
-108,-1352,-327,166,357,-89
-102,-1294,-200,244,84,-80
-31,-1286,-146,240,-10,-102
39,-1275,-48,234,49,-144
121,-1263,-9,195,-59,-141
233,-1263,62,162,-271,-95
285,-1297,119,105,-380,-69
268,-1321,113,22,-375,-66
218,-1361,104,-26,-357,-93
210,-1378,72,-57,-288,-177
251,-1345,-17,-61,-84,-223
291,-1347,-114,7,-77,-143
314,-1351,-151,104,-303,-17
334,-1345,-40,179,-486,98
270,-1391,55,177,-631,186
226,-1426,127,120,-716,212
155,-1434,222,18,-591,151
56,-1505,280,-172,-360,33
58,-1531,181,-355,-64,-77
114,-1569,133,-430,-10,-114
193,-1522,141,-472,-221,-63
240,-1504,77,-543,-404,57
186,-1514,-71,-597,-503,193
161,-1577,-256,-581,-627,309
162,-1618,-300,-492,-783,415
159,-1679,-269,-436,-915,499
115,-1739,-230,-426,-957,564
2,-1753,-168,-426,-913,562
-77,-1780,-79,-458,-823,473
-104,-1804,-46,-511,-664,342
-53,-1791,-64,-552,-477,222
32,-1862,-101,-570,-362,198
63,-1857,-164,-531,-476,287
80,-1848,-151,-473,-748,425
84,-1884,-228,-496,-859,515
113,-1986,-491,-564,-684,513
115,-2095,-650,-515,-344,491
18,-2151,-609,-384,-183,515
-65,-2175,-549,-286,-174,545
-170,-2246,-574,-201,-115,571
-290,-2287,-528,-77,-242,628
-394,-2303,-324,47,-508,664
-459,-2367,-197,85,-629,613
-487,-2364,-257,80,-645,515
-506,-2367,-417,115,-630,407
-473,-2320,-539,200,-654,282
-344,-2294,-480,259,-575,108
-205,-2184,-328,226,-234,-107
-85,-2105,-239,92,109,-274
-27,-2215,-150,-72,434,-386
122,-2304,-332,-210,758,-433
242,-2381,-629,-142,697,-246
260,-2353,-537,148,287,89
166,-2250,-202,354,-186,379
7,-2135,-51,325,-384,523
-157,-2106,-160,178,-212,515
-321,-2240,-404,64,264,388
-432,-2300,-462,65,675,190
-400,-2289,-215,96,746,-3
-281,-2316,-96,35,742,-141
-81,-2392,-166,-8,687,-166
42,-2417,-318,45,396,-48
-53,-2352,-286,154,136,53
-159,-2259,-239,149,159,42
-290,-2228,-210,52,354,-56
-362,-2215,-130,-82,567,-247
-284,-2222,-111,-223,781,-457
-82,-2269,-178,-314,867,-543
175,-2319,-306,-292,776,-446
326,-2327,-417,-143,360,-170
312,-2278,-431,42,-234,157
154,-2216,-253,139,-591,360
4,-2184,-192,83,-599,362
-33,-2191,-247,-20,-427,242
-46,-2173,-265,-80,-106,65
93,-2155,-239,-147,245,-80
283,-2177,-251,-207,381,-51
398,-2250,-332,-188,340,139
454,-2301,-412,-63,166,445
398,-2298,-406,112,-76,801
114,-2245,-183,236,-155,1071
-274,-2264,43,182,-21,1129
-488,-2342,104,19,164,993
-670,-2390,49,-150,401,776
-726,-2472,-108,-309,658,532
-579,-2545,-333,-370,697,343
-368,-2580,-503,-304,507,288
-167,-2555,-499,-183,286,352
-78,-2544,-404,-96,218,460
-84,-2590,-322,-68,265,556
-176,-2624,-249,-60,432,597
-322,-2673,-227,-81,596,589
-413,-2768,-247,-96,623,553
-464,-2854,-212,-95,491,523
-516,-2937,-173,-129,391,484
-575,-3026,-226,-179,376,401
-541,-3107,-309,-208,266,315
-487,-3158,-390,-207,187,239
-452,-3161,-423,-163,180,135
-391,-3170,-446,-115,173,28
-337,-3181,-443,-62,125,-38
-290,-3189,-414,11,14,-79
-235,-3195,-416,75,-104,-98
-245,-3183,-406,133,-197,-101
-294,-3156,-377,164,-195,-136
-359,-3130,-393,169,-124,-222
-390,-3097,-367,185,-108,-319
-387,-3043,-351,192,-157,-408
-306,-2985,-342,197,-196,-499
-203,-2957,-372,207,-147,-562
-97,-2876,-367,242,-71,-569
-40,-2817,-338,244,1,-527
-79,-2831,-376,206,126,-488
-116,-2799,-414,227,204,-457
-151,-2770,-410,296,131,-401
-182,-2725,-343,347,1,-336
-174,-2650,-241,353,-45,-318
-178,-2617,-159,281,-43,-332
-194,-2601,-193,155,-57,-352
-209,-2599,-263,81,-118,-351
-197,-2572,-353,76,-301,-321
-41,-2520,-380,93,-527,-268
64,-2529,-344,111,-568,-204
-55,-2536,-308,109,-388,-133
-220,-2496,-334,124,-242,-80
-277,-2420,-304,162,-360,-77
-281,-2373,-197,125,-498,-110
-292,-2325,-143,4,-287,-184
-348,-2319,-197,-120,25,-289
-413,-2316,-275,-206,155,-404
-401,-2309,-347,-230,152,-506
-384,-2306,-351,-209,63,-570
-304,-2273,-370,-202,-185,-571
-215,-2240,-402,-190,-405,-509
-151,-2235,-371,-169,-441,-429
-153,-2240,-414,-160,-393,-349
-133,-2210,-542,-89,-578,-256
-52,-2184,-566,51,-872,-154
-79,-2163,-598,195,-852,-113
-219,-2120,-618,312,-612,-156
-388,-2044,-531,374,-236,-309
-497,-1985,-428,380,128,-551
-423,-1965,-399,364,322,-781
-223,-1959,-389,400,406,-909
-36,-1879,-267,472,392,-903
13,-1809,-32,451,372,-802
-13,-1802,60,336,341,-696
5,-1822,42,240,195,-615
-23,-1804,71,168,-58,-551
-34,-1834,48,55,-233,-529
-5,-1890,-85,-15,-148,-565
22,-1938,-235,-17,-17,-614
86,-1901,-310,21,71,-630
102,-1894,-274,73,131,-619
150,-1892,-221,120,157,-598
204,-1869,-151,161,138,-539
208,-1863,-11,147,43,-442
187,-1865,70,71,8,-388
212,-1861,119,-20,25,-387
201,-1861,132,-144,53,-388
178,-1888,-1,-266,59,-370
189,-1888,-174,-280,-120,-326
220,-1893,-296,-207,-365,-246
274,-1888,-346,-93,-377,-184
274,-1851,-297,24,-216,-165
278,-1830,-250,97,-130,-158
217,-1807,-194,143,-18,-149
101,-1816,-143,149,105,-164
71,-1847,-110,129,40,-177
137,-1852,-158,163,28,-185
87,-1823,-100,227,90,-153
-18,-1846,-60,197,16,-128
26,-1834,-106,170,-30,-168
113,-1789,-71,169,33,-215
176,-1820,-165,99,79,-232
250,-1851,-321,70,127,-202
133,-1846,-306,150,227,-153
113,-1798,-293,246,179,-151
180,-1710,-218,355,9,-127
188,-1633,-49,409,-117,-72
188,-1578,-21,379,-192,-27
199,-1550,30,366,-262,-2
229,-1518,81,336,-306,-2
296,-1521,24,282,-238,-18
309,-1525,-69,263,14,-34
230,-1498,-44,287,254,-33
171,-1473,-2,293,325,-36
156,-1439,60,305,286,-47
125,-1434,153,302,182,-54
161,-1392,193,250,87,-78
229,-1393,236,172,100,-124
270,-1422,246,68,160,-175
298,-1442,147,-29,198,-207
330,-1455,61,-75,227,-211
342,-1467,28,-121,256,-189
352,-1512,-54,-196,338,-181
360,-1576,-162,-243,438,-170
319,-1589,-263,-242,483,-133
277,-1599,-359,-195,444,-106
272,-1578,-421,-109,311,-89
285,-1539,-433,3,143,-56
286,-1493,-383,111,8,-10
345,-1446,-311,200,-125,39
402,-1421,-220,254,-252,95
407,-1397,-105,262,-291,142
387,-1364,17,228,-172,141
319,-1372,101,129,-10,111
242,-1428,136,11,128,61
223,-1429,107,-71,258,-22
290,-1408,32,-110,287,-66
332,-1412,-42,-90,162,-29
394,-1404,-124,-51,-60,35
524,-1398,-176,3,-159,100
549,-1437,-136,31,-97,169
439,-1459,-145,7,-32,245
360,-1500,-153,20,19,274
315,-1512,-97,65,5,276
296,-1496,-13,98,-105,305
249,-1452,101,96,-297,345
218,-1455,184,21,-416,360
156,-1466,241,-79,-374,317
111,-1447,242,-223,-287,213
164,-1464,125,-392,-96,98
212,-1546,-60,-494,93,42
294,-1653,-285,-465,112,72
378,-1683,-327,-317,-15,151
466,-1653,-164,-201,-190,237
494,-1591,-48,-219,-163,297
413,-1567,-13,-302,-28,331
289,-1595,16,-383,74,344
204,-1626,4,-460,118,362
124,-1653,-34,-509,34,397
95,-1635,-151,-543,-70,444
131,-1638,-326,-539,-208,520
217,-1656,-404,-468,-381,633
241,-1717,-449,-391,-462,758
111,-1807,-470,-329,-380,844
2,-1903,-349,-229,-183,831
-68,-1926,-128,-150,10,745
-140,-2006,50,-196,133,609
-183,-2075,12,-305,416,461
-253,-2050,-157,-392,720,368
-247,-2027,-317,-437,676,342
-125,-2032,-495,-414,488,351
-18,-2078,-565,-322,369,401
-6,-2145,-495,-218,284,426
84,-2225,-448,-158,286,369
197,-2260,-528,-113,556,313
234,-2241,-532,14,707,356
153,-2180,-318,156,552,477
5,-2200,-247,180,474,568
-146,-2173,-260,175,413,604
-213,-2124,-340,182,325,616
-267,-2148,-283,229,298,608
-263,-2156,-257,261,214,586
-207,-2162,-243,296,80,600
-210,-2152,-91,321,58,602
-226,-2170,-8,224,163,541
-261,-2182,50,49,562,406
-344,-2189,-17,-158,1018,277
-363,-2269,-254,-271,1200,235
-375,-2289,-286,-208,1011,310
-391,-2272,-262,-115,631,426
-337,-2195,-134,-38,307,502
-290,-2113,65,-30,71,548
-305,-2068,164,-150,-80,572
-447,-2100,137,-364,177,492
-546,-2131,23,-576,574,273
-519,-2172,-130,-723,849,-9
-367,-2216,-318,-787,1033,-241
-120,-2227,-507,-736,1067,-293
130,-2212,-584,-555,726,-77
270,-2204,-485,-365,182,285
271,-2168,-379,-318,-42,579
159,-2131,-420,-392,85,748
-120,-2169,-473,-480,286,808
-408,-2243,-495,-541,581,696
-560,-2297,-534,-550,854,463
-513,-2366,-519,-520,901,243
-291,-2355,-443,-499,804,135
-150,-2397,-526,-507,747,175
-101,-2465,-720,-485,705,303
-115,-2474,-844,-363,584,469
-211,-2412,-730,-189,339,631
-333,-2355,-522,-108,112,694
-464,-2298,-345,-159,144,604
-592,-2272,-296,-305,375,419
-628,-2285,-409,-448,647,193
-529,-2309,-575,-503,816,35
-353,-2300,-650,-460,747,35
-271,-2249,-591,-371,506,186
-290,-2255,-619,-308,272,390
-298,-2255,-587,-208,74,552
-320,-2223,-429,-133,-16,636
-417,-2232,-363,-168,-34,667
-542,-2348,-428,-254,24,627
-613,-2449,-451,-321,178,509
-590,-2523,-494,-399,300,395
-548,-2619,-637,-466,284,360
-484,-2711,-780,-475,203,371
-409,-2780,-923,-421,158,408
-390,-2786,-978,-331,40,486
-424,-2806,-992,-252,-134,543
-474,-2851,-970,-177,-147,540
-590,-2866,-875,-127,-74,471
-665,-2892,-831,-132,-18,343
-671,-2932,-803,-146,44,188
-553,-2967,-797,-138,39,43
-428,-2973,-759,-100,-1,-48
-291,-2968,-793,-54,-71,-74
-178,-2969,-858,35,-156,-46
-177,-2954,-828,159,-254,5
-257,-2927,-733,243,-324,7
-303,-2920,-648,268,-279,-74
-323,-2936,-531,256,-168,-180
-345,-2951,-505,208,-91,-264
-300,-2970,-542,175,-106,-317
-223,-2978,-576,164,-169,-310
-246,-3039,-690,156,-192,-267
-314,-3089,-839,227,-223,-221
-366,-2993,-829,384,-307,-206
-382,-2933,-734,467,-354,-253
-351,-2936,-724,450,-225,-347
-380,-2942,-753,451,-18,-421
-408,-2900,-753,514,-5,-445
-364,-2806,-652,600,-215,-437
-277,-2717,-555,632,-358,-427
-194,-2613,-533,606,-386,-398
-173,-2540,-566,567,-372,-339
-162,-2486,-663,550,-352,-261
-148,-2426,-686,591,-393,-182
-232,-2440,-689,641,-568,-101
-401,-2468,-755,706,-722,-41
-498,-2435,-722,811,-811,-44
-574,-2408,-537,873,-752,-151
-548,-2349,-421,814,-479,-283
-459,-2267,-446,720,-147,-373
-387,-2306,-498,641,-17,-391
-416,-2257,-481,628,-17,-300
-476,-2140,-399,686,-56,-253
-408,-2068,-338,692,-216,-297
-386,-2056,-348,622,-253,-320
-426,-2052,-338,569,31,-367
-444,-2029,-325,493,279,-463
-402,-2035,-382,395,376,-540
-353,-2127,-548,377,302,-543
-275,-2132,-674,517,-18,-469
-262,-2057,-551,722,-336,-368
-257,-1989,-318,818,-474,-309
-263,-2007,-231,786,-478,-312
-287,-1991,-251,763,-447,-321
-273,-1981,-139,779,-483,-337
-190,-1975,67,733,-489,-368
-193,-1971,200,572,-366,-382
-215,-2046,202,346,-226,-408
-190,-2157,48,178,-111,-452
-181,-2234,-253,164,6,-457
-234,-2204,-426,299,37,-392
-392,-2181,-319,472,-33,-377
-471,-2102,-38,551,-77,-488
-442,-2064,232,469,100,-689
-363,-2068,346,279,452,-907
-245,-2010,369,70,496,-1013
-82,-1982,386,-137,317,-1020
111,-1953,376,-347,199,-945
249,-1943,275,-524,125,-776
257,-1978,51,-629,-82,-533
154,-2058,-220,-596,-296,-303
37,-2017,-336,-440,-305,-210
-115,-2022,-342,-305,-274,-248
-200,-2046,-261,-187,-129,-386
-140,-1969,-136,-103,156,-550
-68,-1899,64,-111,282,-628
10,-1837,207,-218,352,-646
27,-1760,337,-391,428,-623
-43,-1757,326,-626,423,-575
33,-1798,-12,-782,236,-523
277,-1809,-247,-705,-126,-407
353,-1844,-312,-557,-280,-206
235,-1846,-502,-427,-284,7
164,-1853,-622,-219,-392,127
182,-1834,-567,16,-462,158
96,-1831,-458,168,-499,187
-71,-1791,-252,249,-466,150
-234,-1801,-3,206,-219,-10
-303,-1781,52,61,195,-235
-248,-1739,21,-66,420,-417
-176,-1711,-68,-160,390,-471
-186,-1726,-221,-183,221,-433
-121,-1729,-283,-119,-38,-379
46,-1682,-268,-27,-243,-330
174,-1649,-253,25,-291,-282
212,-1651,-347,46,-310,-181
172,-1680,-403,116,-396,-69
95,-1652,-327,213,-407,-27
37,-1607,-258,260,-371,-41
67,-1554,-231,284,-447,-47
81,-1486,-98,298,-438,-71
50,-1490,-57,221,-270,-132
-10,-1519,-201,196,-33,-204
2,-1526,-308,307,29,-260
81,-1515,-303,486,-115,-275
184,-1474,-152,647,-227,-256
257,-1385,61,712,-251,-218
324,-1329,205,640,-271,-198
382,-1314,228,478,-211,-179
339,-1348,191,334,-70,-142
274,-1352,180,234,26,-132
261,-1352,106,135,44,-151
256,-1336,23,86,48,-146
213,-1327,-31,79,-2,-120
232,-1278,-119,80,-75,-103
239,-1224,-176,118,-71,-71
198,-1166,-150,155,-102,-28
212,-1143,-115,161,-204,5
279,-1145,-56,176,-258,14
303,-1114,45,184,-274,39
350,-1114,141,152,-292,68
391,-1157,204,70,-240,74
352,-1217,213,-29,-138,67
348,-1291,184,-113,-104,48
339,-1289,154,-182,-33,22
272,-1282,105,-253,122,0
197,-1297,1,-303,140,10
188,-1314,-109,-287,-25,62
233,-1345,-198,-224,-209,130
268,-1402,-225,-152,-340,215
250,-1449,-201,-100,-492,311
201,-1445,-98,-83,-483,338
182,-1477,-11,-160,-302,283
94,-1593,6,-295,-95,195
-3,-1670,-66,-387,232,72
4,-1641,-98,-387,427,-36
126,-1569,-200,-369,316,-21
282,-1573,-366,-316,112,122
351,-1601,-363,-196,-157,328
297,-1593,-312,-96,-412,488
290,-1654,-275,-54,-531,558
326,-1694,-212,-43,-429,548
289,-1754,-200,-79,-205,543
159,-1830,-118,-98,-48,579
-17,-1859,67,-109,27,575
-90,-1843,119,-201,67,537
-83,-1841,-16,-333,78,518
-75,-1871,-203,-419,33,520
-117,-1952,-278,-446,-19,523
-60,-2038,-365,-433,-23,495
93,-2092,-361,-356,45,485
108,-2096,-221,-277,122,515
32,-2018,-108,-299,159,563
-34,-2005,-111,-391,241,588
-77,-2016,-226,-474,302,615
-63,-2041,-358,-496,216,684
-30,-2109,-463,-439,73,762
-85,-2108,-384,-354,85,804
-203,-2116,-339,-334,213,792
-344,-2217,-328,-341,390,696
-402,-2284,-291,-354,636,498
-267,-2291,-325,-376,834,311
-117,-2221,-462,-359,813,312
-93,-2133,-525,-293,570,503
-207,-2111,-496,-201,341,708
-396,-2183,-404,-108,199,785
-580,-2258,-326,-84,206,682
-734,-2342,-363,-112,316,450
-667,-2423,-473,-85,301,208
-522,-2415,-414,21,250,12
-301,-2341,-381,70,281,-164
-41,-2271,-376,44,335,-219
-22,-2239,-382,-1,485,-152
-82,-2263,-496,-35,661,-67
-189,-2315,-547,13,600,48
-217,-2313,-568,123,317,145
-199,-2296,-518,225,22,252
-290,-2284,-345,274,38,279
-330,-2273,-194,220,189,181
-304,-2314,-177,127,321,72
-235,-2318,-242,76,447,15
-259,-2271,-226,54,528,19
-293,-2253,-253,10,555,33
-313,-2276,-321,1,484,74
-369,-2241,-348,42,380,110
-367,-2167,-229,93,274,93
-276,-2075,-10,73,263,32
-207,-2047,83,-66,366,-27
-120,-2116,-99,-234,535,-48
-84,-2186,-285,-294,568,3
-62,-2211,-345,-272,482,116
-94,-2248,-420,-224,471,241
-159,-2234,-411,-140,419,355
-226,-2186,-285,-93,287,422
-208,-2135,-234,-117,199,447
-202,-2100,-146,-160,178,477
-240,-2086,-79,-260,190,489
-266,-2089,-115,-391,177,491
-313,-2111,-195,-492,164,480
-284,-2131,-293,-569,234,446
-281,-2169,-390,-619,365,438
-261,-2221,-544,-638,424,456
-212,-2270,-706,-595,407,514
-217,-2297,-750,-515,360,608
-264,-2284,-701,-466,291,698
-418,-2345,-777,-479,267,753
-553,-2396,-827,-439,280,740
-619,-2415,-700,-384,234,684
-651,-2423,-552,-424,210,599
-696,-2406,-503,-536,324,437
-615,-2469,-582,-632,369,261
-406,-2487,-569,-655,264,181
-243,-2514,-575,-699,145,192
-160,-2602,-747,-732,143,233
-154,-2691,-925,-660,102,336
-196,-2759,-982,-506,19,479
-257,-2811,-968,-355,-77,633
-505,-2887,-925,-231,-154,755
-744,-2968,-833,-126,-272,761
-875,-3030,-676,-57,-415,661
-912,-3113,-625,-50,-441,482
-885,-3174,-651,-52,-413,281
-759,-3238,-691,-36,-431,105
-561,-3305,-719,11,-455,-7
-465,-3330,-707,89,-373,-55
-478,-3361,-739,142,-328,-71
-521,-3393,-814,191,-324,-89
-596,-3402,-855,276,-316,-138
-570,-3354,-813,379,-376,-232
-533,-3277,-721,432,-391,-316
-631,-3260,-804,443,-317,-390
-683,-3207,-948,557,-390,-451
-616,-3071,-902,744,-644,-480
-574,-2927,-781,856,-673,-525
-611,-2836,-770,913,-559,-593
-608,-2765,-796,999,-544,-651
-596,-2663,-735,1105,-570,-712
-610,-2536,-638,1144,-466,-824
-720,-2512,-581,1097,-127,-994
-724,-2504,-607,1043,173,-1153
-557,-2498,-670,1076,187,-1221
-338,-2461,-662,1179,50,-1166
-244,-2464,-579,1257,-41,-1038
-307,-2416,-553,1289,-147,-879
-337,-2395,-508,1343,-345,-734
-342,-2335,-425,1395,-539,-653
-334,-2284,-337,1391,-635,-582
-336,-2216,-211,1361,-687,-507
-403,-2145,-59,1277,-675,-469
-450,-2103,6,1137,-578,-492
-389,-2060,15,1006,-491,-546
-252,-1982,-38,896,-418,-566
-114,-1974,-92,812,-385,-537
-74,-2007,-83,762,-389,-454
4,-1965,-38,770,-463,-321
80,-1907,87,767,-615,-165
65,-1924,132,684,-749,-17
-64,-1974,69,602,-778,102
-160,-1963,120,595,-857,179
-105,-1973,206,539,-975,209
-104,-2020,190,391,-1020,253
-159,-2065,163,280,-1035,274
-170,-2075,200,194,-1058,223
-113,-2092,214,56,-897,107
-82,-2115,173,-71,-602,-12
-114,-2130,211,-181,-420,-99
-174,-2200,133,-309,-230,-197
-197,-2137,-23,-337,-278,-249
-166,-2085,91,-296,-617,-278
-101,-2105,100,-360,-730,-336
-128,-2142,60,-440,-603,-390
-125,-2133,69,-464,-353,-479
-3,-2112,96,-476,-183,-548
150,-2120,65,-491,-80,-529
210,-2084,-21,-492,1,-444
192,-2063,-50,-461,39,-378
98,-2065,-85,-412,73,-360
-43,-2002,-164,-365,206,-391
-86,-1995,-211,-313,416,-486
57,-1987,-203,-218,503,-561
78,-1894,-96,-111,406,-517
-32,-1848,87,-73,235,-426
-56,-1792,215,-104,67,-386
-6,-1723,246,-175,-150,-344
78,-1676,220,-257,-528,-255
221,-1670,187,-321,-675,-165
194,-1636,182,-355,-460,-59
144,-1628,220,-370,-331,18
111,-1683,205,-410,-291,61
57,-1707,34,-429,-62,74
39,-1692,-121,-364,178,44
3,-1674,-71,-255,165,37
-79,-1642,106,-208,184,8
-106,-1616,195,-253,246,-63
-92,-1591,200,-326,43,-57
15,-1525,270,-370,-324,27
117,-1537,324,-472,-454,85
128,-1559,242,-620,-364,178
