ax,ay,az,gx,gy,gz
308,-245,541,-935,-402,626
353,-342,396,-1138,-308,461
415,-511,201,-1310,-161,302
488,-697,2,-1413,-24,209
514,-841,-136,-1444,79,196
514,-893,-172,-1418,112,272
528,-811,-108,-1388,90,437
475,-674,10,-1405,44,652
307,-663,0,-1500,1,867
180,-768,-95,-1591,-55,1029
131,-814,-143,-1620,-141,1114
96,-806,-163,-1635,-210,1169
43,-827,-178,-1723,-212,1200
-39,-1033,-361,-1916,-118,1116
-54,-1348,-722,-2064,11,944
26,-1629,-1038,-2067,98,814
108,-1775,-1146,-1951,151,791
61,-1785,-1046,-1830,208,795
-154,-1792,-940,-1778,290,724
-333,-1946,-987,-1796,368,597
-379,-2131,-1047,-1776,310,544
-420,-2293,-1021,-1735,166,559
-345,-2484,-1155,-1742,31,516
-155,-2669,-1327,-1740,-69,422
-75,-2808,-1438,-1658,-41,331
-112,-2690,-1344,-1493,24,236
-238,-2373,-1093,-1421,128,101
-362,-2146,-882,-1466,232,-66
-354,-1941,-710,-1495,203,-248
-277,-1814,-497,-1559,132,-416
-100,-1948,-509,-1783,71,-526
154,-2540,-858,-2105,-34,-440
442,-3361,-1444,-2347,-209,-86
705,-4037,-2124,-2353,-403,427
726,-4469,-2498,-1919,-437,1008
469,-4640,-2435,-1374,-373,1371
119,-4489,-2138,-894,-221,1271
-141,-4200,-1711,-476,-7,875
-187,-3904,-1389,-256,115,499
-188,-3745,-1156,-212,179,314
-161,-3754,-1130,-255,202,210
-56,-3821,-1211,-234,173,154
-4,-3794,-1243,-91,91,190
-30,-3630,-1202,93,1,256
-73,-3441,-1115,244,-49,261
-89,-3303,-1081,354,-54,173
12,-3175,-1025,480,-82,23
74,-3064,-953,563,35,-170
114,-3042,-936,626,126,-350
107,-3068,-980,686,167,-496
96,-3116,-1039,752,202,-597
96,-3148,-1120,813,214,-652
91,-3145,-1167,891,224,-664
80,-3080,-1150,999,220,-641
24,-3001,-1124,1107,187,-581
5,-2908,-1097,1199,129,-499
-2,-2799,-1038,1281,56,-401
-31,-2733,-1028,1322,8,-333
-102,-2733,-1050,1342,-14,-327
-149,-2700,-1089,1370,-29,-362
-164,-2668,-1150,1367,-25,-383
-148,-2635,-1182,1359,-30,-388
-111,-2556,-1157,1371,-23,-416
-82,-2467,-1117,1400,13,-490
-104,-2377,-1082,1441,61,-568
-158,-2299,-1059,1475,104,-612
-132,-2162,-1002,1529,73,-600
-100,-2012,-912,1572,23,-552
-133,-1896,-855,1577,9,-520
-136,-1802,-837,1555,7,-508
-18,-1676,-788,1540,-15,-481
39,-1520,-640,1537,6,-447
33,-1401,-530,1513,65,-465
83,-1316,-473,1482,121,-519
118,-1234,-326,1478,93,-509
87,-1143,-218,1444,24,-456
47,-1113,-180,1360,-50,-405
66,-1117,-186,1254,-138,-339
109,-1132,-181,1161,-178,-276
136,-1171,-242,1088,-181,-257
134,-1257,-332,1071,-151,-293
223,-1284,-398,1145,-99,-357
345,-1179,-323,1278,-59,-386
382,-996,-161,1376,-14,-365
328,-799,12,1381,23,-321
242,-640,202,1290,34,-281
210,-498,376,1125,54,-249
172,-434,471,911,106,-225
169,-442,505,703,84,-212
160,-437,505,508,-11,-220
214,-415,482,332,-80,-256
292,-437,443,163,-68,-279
352,-458,377,17,-41,-283
355,-459,343,-88,-26,-268
328,-489,289,-192,-3,-227
322,-557,218,-284,13,-160
330,-569,203,-340,-42,-47
311,-524,231,-408,-134,101
248,-519,223,-545,-189,243
188,-566,149,-720,-233,355
164,-645,60,-874,-259,406
178,-723,-51,-980,-269,392
224,-799,-175,-1023,-235,333
308,-821,-253,-1017,-178,276
382,-795,-253,-994,-128,238
424,-719,-217,-985,-53,212
414,-666,-127,-1013,38,267
299,-687,-61,-1111,55,393
195,-811,-104,-1246,-26,546
164,-1010,-191,-1342,-200,724
113,-1176,-317,-1385,-414,937
-17,-1350,-443,-1381,-611,1149
-143,-1496,-600,-1349,-797,1254
-215,-1574,-752,-1262,-875,1188
-257,-1511,-752,-1155,-862,1036
-304,-1378,-613,-1135,-778,808
-356,-1311,-441,-1236,-617,544
-388,-1448,-414,-1410,-427,352
-312,-1674,-495,-1629,-414,338
-241,-2026,-699,-1859,-594,534
-313,-2468,-908,-1869,-857,833
-230,-2681,-1054,-1645,-1125,1064
-77,-2614,-1154,-1423,-1159,1049
-102,-2681,-1215,-1471,-673,900
-198,-3039,-1244,-1752,-5,693
-99,-3362,-1366,-1894,330,582
44,-3485,-1339,-1735,260,754
59,-3496,-1195,-1562,165,1062
-32,-3564,-1173,-1504,148,1242
-252,-3738,-1233,-1455,133,1267
-461,-3815,-1256,-1306,62,1188
-514,-3695,-1198,-1089,-40,1001
-408,-3469,-1077,-909,-107,745
-203,-3301,-992,-836,-79,534
-41,-3295,-990,-845,25,429
7,-3354,-1084,-830,76,412
-65,-3422,-1152,-722,38,449
-179,-3426,-1197,-556,-19,478
-219,-3345,-1197,-396,-56,469
-274,-3263,-1156,-275,-36,403
-322,-3268,-1177,-199,41,251
-338,-3363,-1221,-103,109,68
-242,-3367,-1218,47,109,-54
-150,-3296,-1167,206,93,-92
-121,-3249,-1156,329,106,-141
-124,-3249,-1167,431,156,-221
-152,-3223,-1147,534,191,-285
-201,-3178,-1116,625,191,-331
-280,-3191,-1131,689,189,-388
-335,-3212,-1160,752,188,-470
-316,-3208,-1194,811,197,-565
-308,-3188,-1194,850,212,-616
-336,-3151,-1186,872,229,-634
-402,-3145,-1193,873,254,-669
-451,-3160,-1266,857,314,-702
-459,-3120,-1268,856,338,-638
-363,-3001,-1263,870,221,-504
-351,-2944,-1263,879,175,-394
-389,-2982,-1366,946,189,-417
-381,-2986,-1497,1071,199,-542
-298,-2851,-1485,1254,183,-642
-299,-2583,-1301,1459,209,-713
-358,-2301,-1120,1595,273,-837
-404,-2113,-1009,1668,348,-1000
-460,-2010,-925,1694,366,-1119
-462,-1867,-853,1673,323,-1215
-286,-1690,-815,1661,229,-1250
-70,-1519,-763,1616,164,-1150
41,-1307,-630,1492,170,-937
59,-1174,-548,1302,211,-730
133,-1130,-523,1132,292,-641
122,-1121,-462,1073,397,-620
15,-1118,-420,1101,425,-648
22,-1113,-386,1184,317,-688
34,-1043,-307,1279,222,-668
-32,-993,-251,1315,156,-632
-12,-1024,-285,1275,94,-610
107,-1020,-290,1225,68,-584
227,-944,-220,1231,70,-549
306,-851,-133,1284,104,-533
311,-763,-38,1334,165,-548
286,-679,82,1359,141,-574
326,-565,227,1345,75,-555
352,-442,391,1260,28,-432
301,-411,505,1072,-67,-226
280,-413,512,812,-237,-21
256,-462,478,562,-353,122
303,-498,436,353,-369,173
395,-518,414,189,-317,164
430,-525,395,68,-258,140
388,-540,370,-28,-173,87
351,-520,374,-104,-77,4
384,-449,412,-183,-9,-70
424,-374,471,-283,26,-93
422,-333,510,-419,37,-63
382,-339,524,-580,19,-7
350,-355,490,-747,-45,73
356,-376,424,-928,-136,188
360,-493,262,-1140,-226,347
328,-749,-30,-1326,-268,504
282,-1026,-322,-1381,-274,613
343,-1166,-505,-1291,-306,671
375,-1151,-522,-1153,-255,682
264,-1138,-470,-1073,-68,638
130,-1153,-450,-1065,102,553
50,-1192,-420,-1062,158,522
-1,-1229,-392,-1041,80,617
-25,-1224,-390,-1042,-114,795
-39,-1169,-395,-1058,-275,973
-141,-1204,-399,-1139,-326,1097
-167,-1307,-554,-1265,-282,1062
-135,-1550,-730,-1338,-157,837
-77,-1758,-896,-1375,73,502
31,-1850,-958,-1330,248,246
118,-1849,-877,-1291,317,223
92,-1832,-759,-1324,312,409
-24,-1858,-711,-1381,185,706
-224,-1939,-709,-1425,-37,1008
-387,-2103,-813,-1493,-238,1259
-465,-2395,-1013,-1611,-406,1399
-508,-2642,-1237,-1717,-396,1309
-569,-2852,-1369,-1791,-186,1032
-620,-3062,-1396,-1830,62,604
-459,-3169,-1434,-1762,216,180
-225,-3128,-1385,-1583,204,11
-117,-3066,-1234,-1414,120,120
-69,-3033,-1199,-1312,27,345
-40,-2971,-1172,-1213,-114,595
-169,-2914,-1100,-1122,-227,787
-318,-2885,-1073,-1089,-240,820
-330,-2883,-1093,-1099,-213,710
-340,-2955,-1119,-1089,-179,540
-308,-3019,-1170,-1036,-138,357
-269,-3022,-1186,-940,-116,228
-307,-3094,-1201,-836,-109,178
-283,-3151,-1224,-736,-141,162
-175,-3165,-1267,-650,-188,164
-102,-3226,-1305,-592,-189,166
-92,-3342,-1384,-530,-153,115
-58,-3446,-1479,-404,-117,16
8,-3513,-1546,-210,-75,-64
37,-3544,-1564,-3,-30,-97
18,-3501,-1521,207,-4,-118
-9,-3445,-1462,397,18,-144
-25,-3356,-1385,550,28,-162
-45,-3250,-1302,669,41,-205
-93,-3185,-1249,741,82,-286
-130,-3231,-1292,769,136,-382
-184,-3317,-1375,810,154,-446
-257,-3367,-1470,884,148,-483
-265,-3359,-1536,983,157,-520
-243,-3279,-1511,1111,158,-558
-217,-3174,-1472,1246,178,-608
-199,-3077,-1414,1358,211,-650
-213,-2974,-1369,1443,211,-668
-215,-2834,-1320,1523,181,-654
-274,-2691,-1240,1567,154,-632
-334,-2548,-1178,1559,157,-661
-342,-2435,-1138,1519,171,-739
-336,-2327,-1053,1490,172,-827
-355,-2224,-1016,1474,184,-942
-331,-2197,-1084,1466,215,-1061
-237,-2187,-1157,1500,271,-1115
-127,-2086,-1127,1576,266,-1053
-60,-1933,-1105,1649,205,-968
-8,-1819,-1046,1717,244,-913
28,-1625,-885,1800,278,-874
25,-1411,-699,1874,313,-878
41,-1230,-537,1903,329,-900
85,-1045,-338,1888,397,-892
99,-907,-121,1808,491,-821
60,-848,4,1670,480,-716
20,-835,89,1508,351,-616
67,-823,110,1310,156,-525
170,-814,94,1102,8,-413
212,-855,45,917,-78,-286
202,-971,-79,795,-126,-196
222,-1086,-210,783,-118,-154
298,-1128,-239,865,-103,-138
407,-1012,-167,976,-90,-122
410,-930,-70,1087,-29,-59
237,-747,147,1184,1,31
132,-626,324,1042,28,-69
85,-571,404,836,61,-270
82,-554,433,629,81,-335
108,-547,447,441,9,-267
128,-561,414,261,-105,-172
164,-556,391,118,-190,-117
216,-541,353,4,-221,-112
286,-587,270,-87,-189,-128
338,-623,203,-145,-159,-144
353,-594,190,-180,-129,-160
357,-533,242,-234,-87,-176
358,-471,294,-350,-58,-158
336,-460,307,-527,-50,-75
291,-519,260,-732,-92,58
290,-632,123,-923,-146,208
285,-809,-46,-1058,-194,353
240,-1021,-213,-1098,-245,463
220,-1130,-338,-1045,-282,521
270,-1137,-387,-977,-276,564
353,-1077,-370,-921,-247,630
362,-982,-290,-937,-187,684
278,-948,-203,-1082,-70,666
171,-1024,-238,-1288,24,606
47,-1161,-282,-1492,107,567
-18,-1340,-321,-1659,59,568
-38,-1498,-446,-1744,-125,599
-113,-1780,-684,-1716,-338,716
-115,-2063,-980,-1570,-457,891
-10,-2143,-1012,-1395,-501,1078
-16,-2067,-885,-1374,-418,1150
-27,-1894,-726,-1489,-234,1019
-33,-1681,-580,-1598,-67,813
5,-1452,-421,-1652,-12,680
-6,-1307,-259,-1714,24,618
-86,-1330,-230,-1815,88,574
-34,-1520,-420,-1884,11,628
130,-1638,-595,-1891,-266,938
46,-1791,-717,-1957,-511,1350
-300,-2112,-950,-2099,-595,1503
-539,-2536,-1340,-2212,-429,1277
-430,-2814,-1616,-2195,-189,879
-164,-2891,-1658,-2015,-44,492
9,-2759,-1439,-1783,103,249
6,-2670,-1253,-1636,192,144
23,-2714,-1288,-1558,147,209
-23,-2871,-1386,-1490,-14,526
-183,-3081,-1558,-1426,-179,913
-327,-3307,-1743,-1365,-292,1148
-435,-3525,-1868,-1289,-298,1158
-488,-3760,-1997,-1163,-158,942
-466,-3910,-2100,-957,2,657
-401,-3960,-2095,-702,100,448
-339,-3912,-2014,-446,138,345
-323,-3830,-1889,-217,112,361
-363,-3728,-1812,-13,48,402
-391,-3569,-1734,190,-16,415
-427,-3374,-1603,347,-56,407
-477,-3212,-1485,439,-62,326
-479,-3109,-1420,516,-54,172
-420,-3041,-1371,621,-37,6
-375,-2990,-1341,720,1,-152
-343,-3043,-1402,745,56,-334
-276,-3128,-1522,793,109,-483
-210,-3147,-1561,892,117,-536
-162,-3100,-1575,1007,116,-536
-144,-3026,-1532,1136,120,-534
-145,-2872,-1414,1275,104,-544
-154,-2691,-1285,1380,115,-579
-246,-2599,-1219,1434,159,-622
-359,-2576,-1211,1444,173,-672
-419,-2537,-1194,1446,150,-724
-406,-2509,-1218,1426,135,-781
-344,-2521,-1250,1394,140,-812
-296,-2518,-1294,1397,175,-834
-244,-2508,-1335,1449,248,-875
-205,-2416,-1278,1574,276,-881
-217,-2255,-1163,1696,267,-847
-277,-2099,-1042,1738,248,-805
-301,-1973,-945,1708,195,-767
-346,-1889,-876,1652,143,-720
-355,-1845,-855,1584,69,-684
-264,-1769,-815,1535,28,-696
-136,-1669,-790,1514,94,-737
-63,-1589,-742,1521,168,-737
-11,-1465,-661,1548,174,-763
3,-1343,-579,1608,205,-817
3,-1191,-427,1672,264,-864
0,-1043,-252,1696,248,-875
-45,-998,-181,1655,167,-833
-31,-1006,-187,1546,65,-753
-3,-1034,-206,1400,15,-650
69,-1106,-257,1254,4,-558
152,-1136,-279,1209,11,-455
176,-1062,-208,1202,15,-389
186,-980,-136,1178,49,-425
192,-917,-55,1138,63,-524
189,-832,37,1105,69,-569
201,-733,128,1060,39,-522
210,-623,263,976,-15,-404
210,-535,356,824,-57,-272
202,-486,414,640,-109,-153
171,-436,458,456,-172,-60
141,-403,474,277,-230,-16
178,-387,450,96,-256,-1
251,-370,410,-69,-230,14
267,-388,370,-227,-167,27
262,-419,325,-368,-107,12
294,-421,300,-482,-46,-33
371,-393,304,-590,3,-74
427,-373,308,-727,36,-94
436,-406,271,-900,66,-71
440,-507,141,-1082,50,15
436,-650,-6,-1201,-37,173
400,-769,-127,-1254,-140,368
337,-876,-241,-1269,-232,567
358,-954,-333,-1260,-303,755
381,-1037,-416,-1248,-338,933
334,-1117,-506,-1198,-323,1044
273,-1024,-473,-1112,-264,1046
182,-836,-327,-1098,-131,939
88,-688,-189,-1220,70,712
29,-646,-101,-1448,289,435
14,-754,-66,-1707,439,224
-7,-986,-248,-1942,412,168
-83,-1422,-629,-2070,191,320
-169,-1789,-1021,-2075,-62,618
-212,-2053,-1315,-2042,-260,963
-246,-2224,-1479,-1936,-394,1242
-273,-2222,-1461,-1811,-399,1301
-364,-2117,-1354,-1700,-247,1076
-401,-2014,-1178,-1604,9,700
-345,-1962,-957,-1589,216,396
-284,-2041,-893,-1650,230,325
-240,-2261,-1052,-1745,78,494
-335,-2522,-1226,-1803,-171,802
-495,-2790,-1428,-1857,-345,1041
-492,-3004,-1674,-1881,-423,1000
-408,-3132,-1835,-1816,-346,753
-476,-3187,-1809,-1689,-68,365
-568,-3118,-1655,-1565,211,-165
-475,-3065,-1484,-1476,372,-660
-168,-2995,-1310,-1371,388,-900
168,-3024,-1281,-1319,288,-785
347,-3216,-1409,-1296,78,-313
334,-3420,-1611,-1222,-216,293
113,-3539,-1745,-1098,-415,755
-58,-3567,-1826,-957,-423,864
-174,-3589,-1827,-773,-262,623
-221,-3595,-1765,-537,-77,209
-85,-3427,-1642,-242,-9,-143
132,-3199,-1471,-15,11,-270
241,-3067,-1355,98,9,-189
213,-3012,-1310,171,-35,-22
180,-2978,-1329,237,-76,88
116,-2986,-1347,299,-75,89
74,-3015,-1362,384,-32,9
68,-3045,-1384,483,17,-102
97,-3121,-1461,567,73,-205
127,-3250,-1580,658,125,-278
105,-3323,-1664,790,163,-319
104,-3352,-1755,948,193,-360
150,-3323,-1770,1131,224,-370
122,-3195,-1692,1323,246,-337
28,-3053,-1609,1469,265,-322
-67,-2963,-1537,1569,269,-324
-169,-2893,-1497,1629,252,-319
-245,-2861,-1495,1654,236,-322
-277,-2835,-1504,1686,212,-320
-312,-2764,-1505,1737,162,-291
-310,-2632,-1451,1799,123,-277
-296,-2445,-1334,1858,121,-309
-240,-2158,-1190,1844,143,-352
-235,-1978,-1048,1618,189,-234
-305,-1931,-950,1327,212,-61
-336,-1920,-930,1175,135,-29
-314,-1988,-1011,1101,56,-129
-235,-1988,-1070,1138,-35,-275
-169,-1916,-1081,1292,-94,-398
-167,-1890,-1129,1484,-95,-486
-224,-1810,-1072,1675,-53,-574
-271,-1702,-972,1821,-13,-704
-287,-1583,-861,1939,-25,-803
-286,-1421,-703,1995,-126,-816
-297,-1317,-573,1961,-227,-802
-263,-1267,-493,1901,-320,-801
-94,-1122,-365,1865,-427,-831
274,-899,-222,1824,-390,-895
468,-842,-149,1689,-127,-911
399,-904,-154,1535,82,-928
274,-919,-121,1495,163,-963
319,-743,-12,1523,150,-977
407,-607,110,1491,103,-854
391,-551,220,1375,51,-611
305,-498,333,1222,-29,-405
278,-456,405,1049,-87,-331
294,-455,422,867,-84,-324
314,-491,367,689,-64,-334
364,-529,322,516,-38,-327
402,-585,277,364,-11,-299
429,-615,241,261,-2,-241
403,-604,250,192,-1,-167
351,-553,301,125,-22,-83
319,-495,377,33,-62,9
295,-438,414,-97,-124,123
269,-389,430,-248,-217,269
214,-355,439,-424,-282,389
174,-326,405,-619,-300,448
88,-380,298,-821,-271,455
38,-541,97,-977,-229,406
78,-697,-74,-1017,-201,327
175,-663,-85,-965,-202,267
256,-522,19,-951,-157,245
246,-451,116,-1064,-50,265
57,-534,120,-1258,24,283
-192,-726,16,-1435,3,277
-334,-955,-160,-1538,-161,318
-364,-1110,-354,-1534,-409,454
-346,-1166,-505,-1515,-584,651
-332,-1260,-621,-1600,-631,796
-234,-1391,-770,-1738,-575,733
-50,-1495,-893,-1867,-381,437
168,-1581,-966,-1878,-164,102
296,-1651,-927,-1756,-42,-63
288,-1732,-850,-1703,71,-49
320,-1835,-877,-1687,38,168
352,-1915,-865,-1633,-157,546
215,-2038,-871,-1624,-349,891
87,-2206,-1014,-1674,-396,992
79,-2349,-1172,-1712,-337,919
88,-2436,-1269,-1741,-233,788
67,-2521,-1314,-1840,-44,586
122,-2556,-1212,-1812,127,388
272,-2577,-1101,-1719,175,278
458,-2675,-1091,-1631,79,344
482,-2748,-1144,-1535,-116,640
299,-2884,-1306,-1502,-250,1070
67,-3034,-1479,-1478,-351,1447
-208,-2995,-1483,-1374,-425,1585
-635,-2892,-1352,-1286,-369,1352
-916,-2881,-1322,-1273,-201,767
-853,-2903,-1364,-1244,13,98
-307,-2804,-1320,-1158,8,-290
203,-2679,-1194,-1125,-65,-290
522,-2777,-1191,-1196,-21,-124
764,-3057,-1364,-1230,-5,114
780,-3380,-1597,-1137,-75,455
446,-3729,-1865,-973,-118,712
112,-4059,-2172,-764,-60,752
-84,-4347,-2328,-433,65,656
-132,-4418,-2321,-35,154,486
-74,-4253,-2125,372,200,320
-64,-4008,-1865,684,227,227
-136,-3790,-1694,863,251,206
-231,-3613,-1562,969,256,187
-344,-3509,-1462,1033,249,101
-385,-3464,-1482,1083,239,-56
-367,-3479,-1541,1157,215,-204
-296,-3500,-1636,1242,210,-312
-159,-3495,-1707,1351,221,-376
-135,-3469,-1735,1509,232,-401
-183,-3358,-1734,1712,235,-426
-214,-3124,-1650,1924,223,-477
-261,-2868,-1436,2079,222,-544
-287,-2629,-1277,2144,224,-635
-277,-2414,-1149,2150,206,-729
-315,-2264,-1006,2108,204,-816
-346,-2221,-1039,1995,240,-923
-313,-2238,-1098,1904,235,-980
-263,-2214,-1128,1865,195,-972
-210,-2134,-1186,1859,209,-938
-107,-2083,-1217,1903,193,-879
-72,-1962,-1148,1997,198,-832
-37,-1765,-1063,2132,183,-844
8,-1494,-873,2266,160,-878
3,-1208,-591,2322,159,-908
8,-994,-375,2241,229,-960
47,-866,-203,2078,323,-1017
88,-817,-96,1900,351,-1047
123,-808,-53,1734,321,-1062
183,-786,-29,1596,288,-1047
270,-742,-1,1494,242,-954
308,-696,34,1396,178,-802
254,-608,95,1318,141,-616
234,-574,126,1150,108,-503
209,-572,134,1017,109,-444
170,-577,131,937,110,-395
208,-505,192,884,93,-359
213,-413,307,800,78,-313
173,-387,366,657,64,-270
145,-405,358,481,84,-253
179,-419,363,310,98,-242
193,-427,355,156,86,-226
218,-416,343,25,63,-213
259,-400,352,-85,41,-190
283,-398,346,-194,22,-149
317,-417,315,-292,-5,-98
382,-423,303,-381,-51,-31
401,-455,276,-485,-77,73
408,-537,218,-596,-116,212
409,-628,124,-683,-201,385
389,-698,53,-739,-290,568
347,-702,39,-800,-335,704
266,-703,69,-912,-292,735
197,-790,43,-1071,-140,628
191,-949,-38,-1195,7,448
262,-1076,-114,-1243,56,325
350,-1161,-159,-1245,30,343
354,-1239,-186,-1247,-41,460
322,-1270,-231,-1252,-99,595
245,-1353,-318,-1294,-118,728
112,-1462,-442,-1317,-138,794
34,-1501,-506,-1328,-123,733
-11,-1482,-514,-1333,-63,611
-64,-1475,-519,-1352,8,478
-62,-1462,-535,-1370,64,327
-61,-1433,-493,-1389,65,246
-86,-1439,-445,-1439,47,262
-78,-1552,-460,-1526,-14,411
-42,-1698,-564,-1569,-248,734
1,-1789,-669,-1579,-547,1145
-25,-1843,-753,-1654,-761,1488
-200,-1896,-834,-1809,-699,1497
-380,-1940,-884,-1987,-436,1134
-433,-2067,-984,-2130,-163,573
-260,-2201,-1112,-2153,31,52
-9,-2325,-1112,-2078,78,-208
123,-2462,-1115,-1992,23,-194
142,-2689,-1293,-1922,-149,77
134,-2885,-1493,-1865,-367,524
88,-3004,-1590,-1811,-500,912
-55,-3063,-1630,-1725,-539,1024
-146,-3098,-1640,-1589,-447,823
-144,-3139,-1643,-1433,-263,483
-50,-3192,-1615,-1278,-110,229
92,-3271,-1557,-1153,-70,182
155,-3382,-1559,-1055,-121,298
125,-3571,-1641,-988,-159,455
53,-3822,-1778,-918,-164,581
-7,-4030,-1929,-774,-164,670
-13,-4098,-2000,-516,-188,725
-25,-4023,-1943,-205,-205,699
-32,-3854,-1788,90,-143,538
-8,-3667,-1605,330,-32,297
0,-3486,-1442,505,50,94
50,-3364,-1334,612,97,-15
65,-3305,-1264,678,113,-48
-13,-3311,-1267,720,119,-85
-98,-3399,-1375,752,123,-165
-160,-3547,-1574,806,130,-247
-174,-3637,-1782,923,141,-302
-190,-3605,-1862,1133,139,-324
-128,-3370,-1723,1401,131,-362
-90,-3067,-1493,1633,152,-433
-85,-2826,-1275,1764,195,-521
-128,-2657,-1141,1810,206,-579
-232,-2578,-1094,1792,188,-603
-227,-2507,-1093,1737,155,-628
-155,-2436,-1084,1696,112,-647
-145,-2373,-1073,1668,98,-675
-139,-2309,-1081,1660,101,-724
-187,-2270,-1089,1675,95,-770
-251,-2283,-1153,1697,110,-821
-148,-2282,-1213,1757,136,-872
-2,-2176,-1164,1872,167,-886
79,-2001,-1072,2008,171,-887
125,-1773,-931,2142,193,-899
64,-1552,-742,2228,222,-889
2,-1338,-552,2232,248,-865
-13,-1130,-350,2185,277,-840
-29,-986,-207,2076,293,-824
0,-900,-122,1877,269,-778
22,-869,-66,1645,237,-686
29,-875,-24,1448,178,-574
99,-882,-39,1321,106,-464
183,-885,-33,1239,80,-353
196,-828,2,1167,65,-289
146,-802,35,1067,112,-298
44,-817,44,967,167,-319
9,-766,81,886,132,-333
-6,-733,142,796,103,-367
-37,-711,183,700,95,-386
-27,-706,175,591,50,-371
34,-726,158,483,-49,-303
95,-698,156,392,-139,-196
152,-675,161,306,-205,-105
208,-670,147,237,-255,-42
279,-609,150,183,-286,5
377,-518,213,108,-283,34
428,-420,308,14,-239,34
423,-341,391,-116,-171,12
445,-291,418,-277,-105,-4
460,-285,442,-455,-31,22
456,-323,426,-651,20,85
430,-408,326,-844,8,188
368,-561,179,-997,-41,329
312,-751,2,-1081,-89,454
349,-893,-125,-1081,-126,531
407,-944,-175,-1029,-132,557
437,-927,-158,-995,-80,555
437,-865,-117,-1016,6,539
373,-754,-49,-1098,106,503
259,-658,-17,-1272,228,432
142,-670,-35,-1492,386,298
77,-797,-107,-1713,554,126
134,-939,-234,-1878,626,71
164,-992,-298,-2007,541,346
70,-1057,-348,-2203,343,894
-24,-1119,-434,-2456,186,1371
-128,-1191,-501,-2659,134,1554
-243,-1277,-587,-2733,149,1335
-255,-1345,-702,-2686,202,818
-273,-1558,-859,-2603,376,284
-154,-1858,-1080,-2533,467,-10
51,-2084,-1303,-2412,240,61
154,-2210,-1402,-2222,-119,388
-9,-2380,-1440,-2020,-369,720
-192,-2528,-1577,-1871,-579,835
-306,-2665,-1730,-1807,-669,701
-372,-2785,-1867,-1745,-577,487
-406,-2894,-1913,-1687,-363,287
-310,-3108,-1992,-1685,-132,34
-14,-3295,-2073,-1598,-29,-69
241,-3267,-2015,-1389,-128,157
207,-3130,-1792,-1159,-264,563
63,-2943,-1620,-1058,-362,868
-134,-2877,-1539,-1070,-362,931
-279,-2932,-1535,-1109,-279,763
-283,-3016,-1580,-1106,-194,511
-216,-3192,-1685,-1070,-145,315
-108,-3385,-1816,-989,-130,220
22,-3484,-1870,-839,-131,254
9,-3553,-1874,-659,-140,385
-70,-3524,-1811,-424,-184,475
-100,-3354,-1670,-168,-234,459
-64,-3115,-1483,12,-244,357
-57,-2977,-1335,88,-178,214
-30,-2956,-1290,92,-88,46
37,-3016,-1328,96,-14,-107
110,-3138,-1442,142,35,-198
142,-3263,-1577,248,57,-238
138,-3380,-1708,388,103,-248
99,-3434,-1772,572,124,-257
53,-3412,-1773,790,129,-285
40,-3336,-1754,995,155,-334
-20,-3238,-1704,1175,180,-376
-88,-3127,-1664,1322,191,-408
-123,-2985,-1586,1444,189,-434
-160,-2841,-1514,1524,195,-468
-179,-2753,-1496,1562,213,-516
-169,-2696,-1482,1601,220,-546
-181,-2642,-1458,1639,222,-544
-203,-2625,-1501,1660,207,-515
-218,-2589,-1525,1728,145,-462
-215,-2428,-1461,1852,69,-414
-280,-2251,-1318,1934,61,-390
-331,-2088,-1218,1937,88,-441
-325,-1999,-1139,1924,113,-556
-287,-1874,-999,1929,108,-668
-219,-1759,-912,1878,105,-736
-112,-1736,-901,1769,93,-719
-5,-1683,-853,1682,57,-626
15,-1613,-832,1636,31,-543
40,-1567,-824,1614,43,-509
68,-1484,-746,1613,56,-484
6,-1387,-639,1603,61,-478
-35,-1302,-562,1558,74,-512
-52,-1245,-479,1475,93,-557
-69,-1188,-448,1362,114,-592
-51,-1167,-429,1264,116,-600
17,-1123,-384,1186,95,-574
56,-1080,-332,1131,78,-526
64,-1041,-302,1108,42,-468
61,-1014,-282,1106,-6,-395
89,-947,-215,1113,-70,-304
97,-887,-137,1098,-112,-231
110,-834,-71,1050,-130,-199
168,-772,-16,970,-135,-193
148,-794,22,843,-112,-197
121,-815,29,710,-66,-219
149,-793,44,619,-50,-255
209,-727,95,551,-67,-275
240,-653,163,469,-61,-265
252,-579,235,367,-52,-248
278,-512,303,252,-49,-234
311,-446,364,126,-34,-222
329,-384,414,6,-34,-201
324,-357,437,-124,-54,-163
349,-380,393,-269,-85,-117
362,-416,322,-400,-139,-40
383,-482,238,-543,-188,85
474,-510,167,-687,-239,227
500,-563,97,-836,-275,378
415,-674,0,-985,-263,459
290,-845,-128,-1102,-154,401
297,-1021,-252,-1147,-55,287
344,-1112,-318,-1115,-39,271
290,-1171,-346,-1061,-53,383
231,-1229,-356,-1021,-96,566
207,-1209,-328,-988,-171,757
166,-1109,-211,-993,-240,918
116,-995,-98,-1091,-236,953
60,-1002,-100,-1274,-123,810
13,-1117,-183,-1442,-21,634
-22,-1279,-310,-1588,-4,484
30,-1487,-503,-1725,-31,353
74,-1750,-687,-1732,-74,357
146,-1898,-855,-1645,-166,503
217,-1931,-903,-1569,-261,680
153,-1899,-849,-1515,-289,809
63,-1793,-800,-1493,-282,802
-44,-1730,-725,-1528,-238,672
-303,-1798,-720,-1654,-17,389
-273,-2031,-929,-1791,194,56
-19,-2288,-1157,-1794,128,17
54,-2450,-1213,-1706,-70,323
45,-2540,-1277,-1637,-222,707
-123,-2622,-1339,-1571,-358,1015
-371,-2621,-1321,-1517,-434,1123
-462,-2554,-1273,-1505,-397,999
-444,-2465,-1217,-1536,-292,734
-393,-2452,-1211,-1614,-161,389
-184,-2485,-1300,-1680,-62,87
24,-2549,-1392,-1668,-61,-10
17,-2698,-1505,-1624,-76,96
-69,-2949,-1686,-1549,-107,268
-152,-3116,-1818,-1391,-207,488
-260,-3191,-1895,-1213,-323,712
-388,-3257,-1913,-1065,-306,785
-467,-3283,-1896,-954,-192,629
-435,-3335,-1891,-825,-45,332
-277,-3392,-1875,-639,53,82
-89,-3373,-1814,-410,35,33
-21,-3331,-1755,-228,-15,168
-121,-3378,-1784,-120,-20,325
-314,-3460,-1847,12,-33,388
-395,-3420,-1821,219,-67,332
-384,-3304,-1752,410,-66,197
-354,-3216,-1693,538,-29,47
-293,-3164,-1651,635,19,-76
-197,-3099,-1619,732,44,-165
-129,-3043,-1583,833,67,-219
-120,-2974,-1548,932,86,-251
-148,-2937,-1553,1008,99,-259
-169,-2924,-1580,1067,96,-236
-250,-2888,-1585,1130,79,-198
-368,-2862,-1551,1173,83,-196
-461,-2909,-1620,1184,109,-257
-490,-2971,-1706,1219,99,-321
-469,-2952,-1771,1309,52,-364
-343,-2803,-1744,1434,5,-391
-185,-2641,-1645,1526,24,-371
-127,-2513,-1529,1607,-5,-289
-186,-2385,-1391,1694,-89,-246
-277,-2175,-1219,1775,-189,-304
-385,-2008,-1064,1798,-243,-414
-417,-1902,-988,1716,-300,-538
-385,-1865,-931,1567,-355,-628
-287,-1866,-924,1446,-432,-654
-166,-1809,-865,1398,-532,-620
-41,-1678,-747,1401,-627,-573
68,-1567,-655,1371,-596,-595
106,-1548,-612,1309,-428,-669
56,-1619,-641,1224,-238,-738
22,-1688,-683,1213,-144,-808
30,-1619,-627,1298,-125,-871
71,-1500,-568,1391,-82,-928
167,-1381,-499,1453,-23,-968
251,-1220,-339,1504,33,-988
270,-1068,-174,1514,136,-1021
253,-984,-114,1478,237,-1054
266,-911,-45,1438,281,-1036
259,-831,52,1383,299,-948
213,-768,144,1289,250,-822
173,-727,204,1154,149,-703
164,-699,233,1015,50,-596
154,-691,235,867,-52,-454
111,-717,172,699,-147,-295
121,-741,104,534,-206,-174
148,-815,29,388,-183,-127
231,-886,-47,290,-77,-165
312,-922,-72,257,60,-255
317,-925,-50,259,170,-355
276,-888,-13,267,217,-413
236,-831,21,241,188,-362
188,-788,50,148,99,-179
127,-785,63,13,-5,53
79,-780,61,-124,-99,214
76,-784,48,-241,-157,253
97,-780,28,-332,-174,233
102,-757,9,-414,-181,228
135,-710,5,-506,-177,246
211,-688,-26,-604,-112,246
244,-715,-54,-689,-24,207
247,-750,-83,-747,48,143
315,-788,-120,-780,102,103
425,-794,-152,-786,74,178
456,-769,-156,-782,-37,400
408,-722,-127,-827,-128,669
285,-736,-111,-949,-150,862
133,-857,-182,-1113,-81,900
18,-995,-305,-1241,51,805
-57,-1130,-444,-1308,207,629
-142,-1221,-528,-1344,376,395
-199,-1277,-531,-1359,519,127
-83,-1205,-453,-1362,586,-120
15,-1216,-369,-1426,612,-257
113,-1336,-434,-1472,508,-185
244,-1426,-540,-1444,185,202
230,-1526,-654,-1443,-181,735
100,-1653,-777,-1485,-415,1159
-69,-1725,-873,-1559,-463,1329
-329,-1837,-995,-1619,-383,1235
-599,-2004,-1092,-1647,-269,945
-748,-2135,-1111,-1664,-118,508
-583,-2106,-1085,-1693,64,53
-230,-2190,-1068,-1712,99,-206
97,-2345,-1093,-1689,-3,-137
235,-2549,-1241,-1653,-168,226
248,-2733,-1402,-1614,-342,742
84,-2965,-1525,-1574,-420,1211
-205,-3194,-1683,-1523,-408,1411
-468,-3318,-1750,-1418,-347,1279
-640,-3450,-1807,-1295,-217,942
-624,-3556,-1860,-1166,-65,516
-376,-3609,-1779,-1003,27,107
-130,-3711,-1699,-838,106,-139
64,-3797,-1733,-663,62,-120
114,-3777,-1741,-461,-95,141
8,-3649,-1654,-278,-203,435
-150,-3471,-1531,-148,-206,554
-261,-3320,-1412,-60,-156,458
-224,-3152,-1298,26,-131,269
-57,-2968,-1178,87,-116,122
87,-2839,-1091,88,-76,60
183,-2795,-1060,67,-56,61
215,-2816,-1094,66,-49,81
199,-2890,-1180,99,-17,65
114,-2998,-1295,169,33,11
51,-3155,-1467,265,78,-49
28,-3306,-1626,405,112,-65
-6,-3333,-1663,594,125,-61
-19,-3233,-1610,784,137,-111
-33,-3110,-1482,938,167,-205
-80,-2983,-1377,1019,218,-296
-133,-2895,-1285,1042,240,-352
-157,-2830,-1207,1046,207,-372
-138,-2778,-1207,1042,154,-375
-148,-2735,-1191,1048,97,-351
-199,-2736,-1197,1053,46,-330
-214,-2778,-1323,1047,22,-330
-231,-2861,-1460,1070,31,-319
-195,-2855,-1525,1157,34,-345
-220,-2788,-1514,1279,59,-426
-258,-2751,-1497,1401,130,-603
-189,-2614,-1404,1539,182,-806
-155,-2451,-1318,1653,239,-958
-70,-2356,-1302,1723,293,-1011
-23,-2201,-1154,1797,282,-917
-78,-2027,-1027,1845,223,-801
-47,-1878,-910,1864,140,-719
-64,-1716,-760,1853,62,-644
-105,-1591,-677,1793,21,-598
-152,-1532,-621,1681,5,-569
-254,-1556,-665,1557,-15,-573
-211,-1664,-828,1474,7,-614
3,-1712,-917,1499,58,-642
221,-1572,-854,1634,108,-661
302,-1376,-696,1777,211,-701
240,-1178,-514,1890,318,-749
120,-916,-235,1981,397,-779
31,-621,37,1982,444,-807
3,-488,229,1849,471,-805
-36,-442,378,1645,424,-751
-58,-464,368,1394,286,-689
-12,-503,296,1184,130,-634
106,-521,266,1048,2,-569
213,-471,287,960,-107,-466
301,-365,361,861,-166,-362
312,-296,424,725,-159,-273
268,-301,437,600,-136,-197
221,-264,488,503,-119,-121
253,-263,484,279,-121,-160
321,-296,448,61,-75,-210
354,-371,360,-139,-80,-114
290,-434,276,-306,-144,48
215,-494,211,-452,-176,168
210,-533,165,-569,-179,229
204,-578,121,-664,-165,258
163,-603,82,-743,-140,241
148,-636,43,-811,-102,164
199,-649,17,-882,-10,52
230,-676,18,-956,87,-48
228,-696,12,-1031,175,-128
238,-714,15,-1114,260,-170
298,-694,21,-1195,263,-90
354,-674,17,-1275,177,134
289,-738,-60,-1349,53,423
188,-823,-179,-1387,-73,682
137,-832,-245,-1423,-181,877
19,-854,-308,-1482,-213,949
-52,-934,-358,-1596,-78,818
-72,-1100,-451,-1742,113,503
-61,-1339,-582,-1856,301,184
17,-1611,-779,-1932,361,29
52,-1874,-1003,-1899,228,179
36,-2091,-1159,-1812,-34,487
73,-2186,-1250,-1719,-164,666
21,-2153,-1198,-1615,-145,712
-148,-2054,-1058,-1519,-92,637
-164,-1918,-849,-1447,7,473
-22,-1866,-719,-1482,9,406
95,-1946,-684,-1608,-163,582
109,-2228,-809,-1807,-327,885
110,-2622,-1119,-1975,-438,1149
97,-2961,-1412,-1970,-608,1368
-64,-3149,-1572,-1825,-756,1528
-300,-3179,-1620,-1665,-742,1495
-442,-3032,-1473,-1484,-623,1256
