ax,ay,az,gx,gy,gz
-2194,-1577,709,866,1640,1377
-2605,-1626,930,730,1590,1086
-3076,-1696,1106,476,1807,571
-3439,-1825,1122,129,2169,-114
-3491,-1979,998,-133,2208,-761
-3238,-2070,922,-227,1810,-1155
-2852,-2113,860,-283,1133,-1208
-2617,-2100,788,-337,344,-1035
-2511,-2092,683,-384,-356,-874
-2419,-2087,576,-421,-876,-859
-2351,-2085,539,-418,-1253,-963
-2387,-2058,495,-456,-1477,-1161
-2521,-2062,323,-573,-1570,-1446
-2529,-2121,38,-672,-1673,-1778
-2336,-2132,-219,-639,-1950,-2013
-2049,-2084,-386,-493,-2418,-2078
-1771,-1958,-465,-328,-2923,-2049
-1456,-1766,-459,-193,-3353,-1989
-1218,-1654,-448,-118,-3591,-1965
-1053,-1560,-542,-142,-3728,-2010
-779,-1483,-690,-226,-3838,-2131
-350,-1348,-831,-302,-3796,-2268
21,-1259,-1025,-418,-3505,-2441
411,-1115,-1209,-517,-3186,-2638
974,-1036,-1236,-556,-2995,-2766
1851,-951,-1225,-703,-2671,-2894
2819,-1066,-1364,-918,-2109,-2953
3751,-1380,-1625,-1025,-1543,-2890
4569,-1796,-1947,-939,-1173,-2521
4821,-2160,-2264,-518,-1141,-1893
4708,-2261,-2161,256,-1471,-1168
4365,-1938,-1626,1027,-1921,-300
4098,-1411,-859,1428,-2286,375
4116,-1236,-315,1289,-2011,620
4145,-1312,-146,881,-1214,525
4148,-1400,-322,498,-292,161
4224,-1590,-644,331,568,-199
4367,-1747,-933,303,1220,-346
4373,-1788,-1083,428,1621,-206
4163,-1748,-1080,645,1699,253
3782,-1680,-1005,865,1487,949
3281,-1556,-899,1098,1145,1699
2764,-1430,-712,1326,824,2343
2276,-1358,-516,1453,616,2796
1823,-1261,-445,1472,542,3056
1371,-1225,-305,1465,551,3164
987,-1304,-231,1363,761,3111
692,-1391,-360,1226,1034,2957
413,-1390,-500,1211,1170,2796
169,-1337,-484,1286,1277,2621
-134,-1332,-371,1379,1527,2395
-603,-1298,-215,1459,1922,2069
-1017,-1284,-94,1473,2330,1627
-1243,-1325,80,1490,2505,1130
-1215,-1297,359,1512,2386,831
-996,-1274,544,1314,2308,739
-835,-1539,320,961,2145,896
-837,-1696,55,934,1677,1332
-1107,-1614,119,1210,1071,1889
-1334,-1423,403,1504,508,2248
-1409,-1218,709,1567,124,2426
-1671,-1196,932,1526,23,2513
-1890,-1143,1228,1600,185,2205
-1791,-1027,1505,1562,527,1534
-1513,-912,1691,1332,808,895
-1410,-872,1816,975,1124,437
-1689,-964,1819,579,1580,53
-2052,-1109,1717,228,2031,-468
-2183,-1292,1571,-10,2345,-1087
-2065,-1450,1416,-88,2323,-1526
-1900,-1339,1433,-13,1868,-1592
-1898,-1234,1539,-110,1287,-1297
-2023,-1300,1566,-269,923,-1056
-2261,-1341,1597,-365,613,-967
-2500,-1278,1687,-420,220,-991
-2659,-1201,1790,-492,-176,-1152
-2788,-1119,1892,-662,-486,-1467
-2908,-1067,1864,-982,-622,-1897
-2810,-1035,1617,-1338,-661,-2330
-2406,-1010,1262,-1662,-865,-2634
-1874,-1024,834,-1918,-1276,-2708
-1472,-1083,471,-2050,-1752,-2570
-1249,-1147,140,-2082,-2177,-2365
-1054,-1177,-165,-2041,-2512,-2241
-731,-1124,-368,-1903,-2792,-2227
-423,-1090,-385,-1788,-2932,-2263
-214,-1059,-460,-1846,-2830,-2371
-20,-1051,-643,-1992,-2632,-2532
233,-1139,-892,-2106,-2492,-2654
587,-1194,-1115,-2046,-2544,-2640
893,-1178,-1341,-1875,-2785,-2475
1282,-1072,-1390,-1589,-3071,-2266
1855,-925,-1263,-1381,-3014,-2162
2442,-837,-1215,-1486,-2626,-2121
2814,-899,-1304,-1683,-2241,-1998
3023,-1063,-1330,-1757,-1985,-1824
3174,-1213,-1318,-1781,-1653,-1695
3286,-1404,-1395,-1823,-1266,-1638
3260,-1658,-1637,-1799,-945,-1563
3227,-1771,-1898,-1580,-876,-1427
3520,-1718,-1917,-1233,-874,-1297
4047,-1643,-1803,-1014,-593,-1134
4426,-1661,-1770,-972,-146,-885
4564,-1747,-1787,-928,213,-575
4619,-1822,-1756,-815,481,-248
4645,-1850,-1662,-667,730,97
4533,-1848,-1548,-503,886,475
4228,-1833,-1428,-347,924,880
3838,-1763,-1345,-214,943,1281
3560,-1688,-1269,-143,986,1599
3309,-1675,-1258,-117,1087,1838
3046,-1694,-1273,-90,1262,2016
2784,-1700,-1307,-35,1501,2137
2475,-1720,-1344,45,1728,2210
2143,-1756,-1393,124,1888,2262
1829,-1796,-1468,231,2004,2338
1532,-1814,-1543,393,2062,2438
1248,-1778,-1537,609,2046,2543
974,-1683,-1483,840,2050,2645
729,-1525,-1370,1057,2065,2724
502,-1359,-1173,1233,2116,2765
277,-1201,-905,1333,2247,2748
39,-1059,-623,1352,2534,2634
-233,-998,-389,1268,2878,2414
-516,-1018,-249,1112,3116,2163
-820,-1098,-244,947,3155,2021
-1099,-1182,-245,840,2932,2007
-1388,-1224,-200,789,2550,2069
-1643,-1256,-96,756,2182,2128
-1858,-1396,-113,666,1938,2104
-1939,-1561,-308,568,1728,2017
-1881,-1676,-410,604,1491,1949
-1947,-1762,-280,716,1328,1887
-2200,-1724,-54,760,1309,1744
-2585,-1727,134,691,1377,1514
-2996,-1826,312,617,1437,1149
-3200,-1850,456,535,1357,744
-3192,-1820,585,450,1125,417
-3110,-1838,673,325,832,189
-3029,-1899,647,216,560,2
-3024,-2002,546,194,317,-192
-2871,-1976,546,280,-97,-391
-2489,-1801,706,333,-562,-646
-2199,-1695,761,239,-786,-886
-2027,-1670,713,60,-947,-1094
-1851,-1649,648,-104,-1047,-1333
-1698,-1673,479,-235,-1066,-1598
-1515,-1699,222,-335,-1027,-1841
-1373,-1795,-54,-340,-1113,-2007
-1249,-1840,-219,-244,-1437,-2120
-1091,-1782,-254,-130,-1754,-2209
-934,-1715,-312,-62,-1981,-2276
-720,-1642,-352,-38,-2178,-2358
-262,-1465,-282,-43,-2094,-2534
193,-1328,-184,-102,-1672,-2724
221,-1454,-303,-272,-1268,-2807
47,-1629,-591,-393,-1223,-2777
-115,-1665,-775,-213,-1617,-2631
2,-1465,-652,79,-2241,-2465
273,-1244,-470,176,-2630,-2406
599,-1151,-457,92,-2782,-2507
909,-1157,-612,-36,-2827,-2745
1268,-1214,-883,-29,-2718,-3055
1808,-1165,-1010,89,-2470,-3227
2382,-1144,-1059,180,-2107,-3130
2632,-1214,-1125,240,-1859,-2739
2548,-1299,-1160,256,-1886,-2084
2414,-1241,-968,448,-2153,-1421
2477,-1058,-615,636,-2425,-1003
2714,-927,-402,600,-2475,-862
3032,-865,-304,442,-2242,-885
3309,-862,-288,199,-1722,-986
3520,-949,-332,-61,-1106,-1110
3689,-1071,-380,-217,-609,-1179
3898,-1140,-425,-279,-277,-1157
4105,-1211,-464,-299,-52,-989
4207,-1282,-472,-298,71,-639
4231,-1356,-467,-284,98,-166
4197,-1387,-448,-265,108,320
4036,-1418,-427,-254,182,729
3779,-1488,-489,-269,355,1012
3552,-1538,-574,-260,558,1248
3263,-1559,-645,-214,713,1515
2932,-1588,-690,-157,799,1778
2634,-1591,-681,-73,866,1976
2383,-1540,-624,9,968,2092
2147,-1491,-579,49,1110,2144
1933,-1455,-562,59,1273,2136
1788,-1428,-537,47,1486,2075
1673,-1431,-532,16,1736,1999
1517,-1477,-598,10,1914,1977
1327,-1498,-642,71,1951,2017
1163,-1455,-629,173,1926,2118
971,-1392,-580,275,1844,2274
781,-1359,-540,312,1731,2373
627,-1354,-524,319,1748,2417
417,-1372,-526,308,1789,2449
205,-1415,-539,306,1806,2431
96,-1434,-530,343,1851,2369
25,-1410,-473,423,1863,2338
-79,-1339,-305,490,1858,2351
-276,-1303,-130,477,1879,2338
-490,-1316,-12,405,1870,2258
-608,-1335,71,316,1874,2115
-780,-1453,66,192,1902,1990
-1013,-1592,-24,53,1804,1925
-1276,-1728,-154,-3,1611,1910
-1544,-1842,-198,41,1398,1920
-1740,-1906,-119,147,1136,1912
-1888,-1934,46,250,839,1863
-2039,-1966,204,282,544,1776
-2245,-2024,312,262,242,1658
-2531,-2080,398,230,-70,1477
-2793,-2068,504,193,-281,1142
-2969,-2031,619,114,-306,616
-3081,-2009,673,-33,-165,-38
-3026,-2019,650,-217,-20,-716
-2812,-2054,549,-361,-34,-1270
-2524,-2068,435,-433,-228,-1624
-2192,-2052,351,-436,-534,-1831
-1862,-2019,251,-407,-854,-1947
-1596,-1989,139,-357,-1153,-2012
-1301,-1953,66,-300,-1417,-2076
-1015,-1909,11,-257,-1641,-2122
-851,-1891,-89,-224,-1812,-2120
-845,-1901,-206,-176,-1891,-2113
-950,-1923,-325,-122,-1831,-2193
-959,-1893,-438,-54,-1715,-2390
-992,-1817,-491,53,-1740,-2590
-1009,-1678,-431,162,-1957,-2778
-811,-1470,-344,210,-2206,-3026
-411,-1263,-339,181,-2349,-3343
214,-1050,-410,149,-2362,-3687
954,-905,-441,167,-2180,-3988
1599,-857,-480,82,-1780,-4159
2079,-920,-698,-249,-1313,-4028
2420,-1144,-957,-410,-1018,-3665
2561,-1315,-1088,-198,-982,-3118
2513,-1361,-1056,142,-1238,-2390
2481,-1265,-844,459,-1708,-1672
2525,-1114,-532,626,-2049,-1158
2636,-995,-348,591,-2069,-908
2647,-961,-280,492,-1903,-797
2481,-944,-227,411,-1695,-742
2332,-879,-127,360,-1492,-744
2312,-771,-15,272,-1328,-788
2477,-669,75,129,-1120,-907
2764,-619,77,-81,-753,-1106
3098,-655,31,-319,-349,-1301
3521,-724,-115,-506,17,-1375
3919,-754,-212,-570,205,-1219
4297,-801,-295,-601,341,-895
4553,-899,-448,-615,499,-430
4542,-1043,-515,-572,630,142
4336,-1151,-461,-483,675,731
4059,-1184,-421,-388,647,1277
3721,-1187,-448,-347,605,1782
3408,-1219,-482,-353,609,2198
3119,-1272,-528,-374,710,2472
2821,-1351,-612,-394,894,2600
2555,-1394,-695,-394,1122,2624
2342,-1447,-787,-385,1390,2593
2151,-1513,-925,-384,1612,2589
1908,-1599,-1103,-322,1750,2664
1663,-1637,-1167,-151,1782,2793
1477,-1613,-1108,67,1769,2923
1260,-1563,-1029,275,1721,3056
1001,-1498,-890,457,1600,3208
754,-1429,-798,575,1504,3358
514,-1367,-728,669,1424,3482
272,-1324,-643,746,1358,3558
80,-1262,-536,822,1345,3583
-165,-1207,-469,871,1364,3562
-480,-1187,-423,928,1383,3467
-760,-1250,-397,985,1501,3269
-854,-1263,-294,1045,1596,3015
-854,-1233,-44,1129,1577,2796
-926,-1165,216,1106,1523,2652
-1271,-1183,368,915,1576,2544
-1810,-1286,395,662,1749,2356
-2213,-1395,471,441,1875,1992
-2332,-1480,521,283,1900,1517
-2334,-1597,533,195,1762,1146
-2281,-1682,585,142,1449,981
-2322,-1749,599,118,1008,984
-2574,-1826,600,137,484,1056
-2933,-1841,708,192,25,1020
-3252,-1822,893,167,-172,720
-3440,-1785,1045,2,-125,162
-3459,-1764,1026,-232,-78,-471
-3267,-1792,915,-419,-174,-987
-3009,-1859,697,-529,-355,-1320
-2758,-1872,533,-570,-667,-1571
-2397,-1800,425,-593,-1001,-1837
-2023,-1767,298,-606,-1275,-2055
-1640,-1701,214,-611,-1496,-2189
-1376,-1684,100,-641,-1572,-2286
-1227,-1697,-32,-710,-1573,-2416
-1214,-1766,-182,-779,-1487,-2634
-1160,-1804,-375,-826,-1344,-2932
-949,-1797,-559,-782,-1351,-3217
-631,-1763,-666,-648,-1510,-3390
-329,-1707,-696,-495,-1687,-3451
-68,-1636,-757,-404,-1801,-3444
233,-1562,-847,-335,-1871,-3403
565,-1490,-873,-208,-1899,-3342
875,-1360,-815,-110,-1864,-3260
1182,-1255,-752,-71,-1730,-3220
1493,-1218,-718,-54,-1570,-3202
1755,-1247,-758,-65,-1447,-3134
1997,-1296,-839,-41,-1396,-2989
2170,-1333,-859,61,-1456,-2745
2242,-1378,-854,210,-1598,-2413
2281,-1359,-835,388,-1809,-2021
2354,-1179,-717,564,-2014,-1666
2605,-958,-432,637,-1956,-1474
2830,-926,-291,490,-1586,-1425
2997,-960,-378,290,-1160,-1422
3169,-976,-363,233,-832,-1362
3457,-922,-243,234,-568,-1226
3720,-839,-140,194,-354,-964
3795,-902,-112,115,-223,-604
3777,-958,-95,66,-157,-239
3771,-941,-25,46,-113,47
3822,-905,77,-4,-31,255
3829,-903,84,-131,178,419
3751,-994,-24,-282,451,558
3619,-1104,-156,-384,713,692
3437,-1171,-268,-432,915,844
3305,-1240,-369,-461,1080,1045
3171,-1328,-449,-481,1221,1307
2962,-1399,-522,-483,1316,1588
2739,-1431,-582,-442,1374,1852
2524,-1428,-563,-388,1434,2086
2280,-1434,-602,-360,1507,2280
2035,-1433,-646,-306,1502,2459
1846,-1408,-667,-214,1468,2626
1672,-1381,-669,-93,1432,2769
1489,-1347,-643,24,1413,2898
1289,-1324,-646,105,1413,3038
1051,-1344,-689,172,1426,3188
759,-1406,-765,253,1427,3324
459,-1438,-834,351,1392,3438
283,-1394,-807,495,1311,3491
189,-1280,-671,655,1247,3551
34,-1184,-551,724,1265,3591
-228,-1152,-504,756,1342,3610
-484,-1112,-464,821,1415,3579
-679,-1031,-267,921,1400,3488
-1013,-959,90,975,1457,3308
-1572,-996,325,827,1719,2962
-2169,-1187,302,520,1909,2505
-2578,-1388,105,285,1866,2073
-2780,-1493,34,214,1646,1780
-3007,-1554,174,231,1408,1613
-3364,-1610,384,219,1291,1382
-3701,-1667,556,142,1220,944
-3871,-1701,705,40,1079,358
-3846,-1711,829,-84,857,-218
-3649,-1688,871,-247,510,-650
-3335,-1689,842,-417,61,-887
-3005,-1727,731,-548,-433,-951
-2678,-1759,615,-622,-941,-946
-2445,-1772,579,-661,-1364,-981
-2245,-1701,532,-718,-1564,-1134
-2022,-1651,484,-825,-1591,-1386
-1825,-1694,343,-983,-1537,-1696
-1628,-1792,61,-1114,-1450,-2022
-1391,-1905,-207,-1136,-1415,-2341
-1158,-1974,-419,-1080,-1424,-2638
-929,-1978,-581,-992,-1431,-2933
-636,-1979,-719,-945,-1362,-3258
-292,-1987,-853,-905,-1219,-3585
133,-1960,-957,-801,-1059,-3835
520,-1954,-1060,-629,-937,-3878
696,-2010,-1113,-442,-959,-3664
632,-2104,-1130,-249,-1059,-3326
572,-2079,-1114,46,-1311,-2988
538,-1909,-1022,386,-1793,-2625
509,-1672,-788,617,-2292,-2346
700,-1432,-606,610,-2415,-2340
997,-1278,-576,462,-2240,-2566
1315,-1169,-580,338,-1932,-2903
1680,-1100,-607,249,-1448,-3265
2091,-1116,-723,159,-917,-3487
2446,-1199,-868,141,-578,-3443
2736,-1280,-967,261,-513,-3079
2878,-1298,-992,503,-737,-2451
2912,-1203,-844,804,-1165,-1774
2974,-1029,-594,1013,-1526,-1225
3121,-835,-331,1041,-1644,-857
3313,-675,-100,926,-1442,-676
3433,-622,-16,724,-1024,-644
3486,-630,-6,555,-607,-642
3581,-589,78,441,-280,-624
3787,-553,180,283,76,-590
3967,-569,204,88,397,-451
3968,-662,160,-67,581,-169
3815,-744,100,-154,606,219
3582,-784,94,-203,574,648
3322,-836,91,-269,567,1059
3083,-905,43,-355,539,1422
2829,-986,-33,-433,518,1721
2586,-1060,-108,-496,552,1930
2365,-1138,-167,-545,623,2056
2148,-1221,-303,-585,736,2103
1895,-1340,-483,-608,876,2091
1703,-1437,-603,-593,1026,2049
1613,-1527,-710,-557,1190,2009
1495,-1663,-885,-511,1342,2032
1384,-1762,-1028,-378,1404,2162
1309,-1760,-1009,-144,1407,2361
1221,-1709,-847,83,1343,2595
1108,-1616,-697,253,1242,2849
945,-1532,-571,379,1154,3083
740,-1497,-483,461,1092,3262
546,-1429,-384,542,1032,3392
323,-1360,-279,598,986,3469
121,-1318,-151,600,978,3488
-55,-1270,-50,572,964,3448
-306,-1279,-10,532,975,3336
-602,-1362,-116,443,1012,3160
-847,-1454,-294,413,1032,2952
-953,-1462,-317,486,1079,2710
-1119,-1474,-175,540,1246,2428
-1420,-1478,-42,473,1515,2073
-1757,-1546,124,320,1845,1630
-2055,-1640,274,105,2112,1149
-2170,-1752,285,-121,2165,731
-2229,-1884,238,-235,1934,536
-2305,-1940,274,-253,1533,511
-2464,-1986,326,-249,1145,500
-2618,-2025,370,-248,788,395
-2703,-2041,384,-261,450,191
-2746,-2066,411,-280,150,-64
-2677,-2035,476,-307,-82,-376
-2508,-2002,527,-388,-223,-713
-2376,-2062,409,-534,-356,-1004
-2265,-2148,181,-663,-567,-1219
-2069,-2182,5,-707,-782,-1403
-1903,-2197,-136,-697,-990,-1576
-1775,-2215,-265,-672,-1175,-1758
-1632,-2188,-396,-612,-1304,-1959
-1444,-2121,-397,-508,-1390,-2162
-1271,-2055,-355,-432,-1404,-2380
-1155,-2006,-396,-414,-1368,-2619
-1052,-1988,-495,-398,-1367,-2842
-935,-1951,-598,-359,-1452,-3003
-799,-1893,-698,-269,-1642,-3105
-643,-1801,-760,-140,-1886,-3186
-403,-1624,-736,0,-2147,-3267
-91,-1444,-702,111,-2354,-3375
365,-1225,-683,183,-2471,-3504
1067,-995,-622,196,-2386,-3620
1698,-973,-657,83,-2022,-3629
2181,-1097,-820,-189,-1698,-3466
2468,-1350,-1157,-373,-1495,-3125
2525,-1562,-1470,-188,-1537,-2509
2373,-1607,-1468,299,-1933,-1687
2120,-1466,-1190,759,-2494,-966
1890,-1231,-890,1000,-2890,-592
1821,-1005,-654,1030,-2974,-567
2073,-787,-401,882,-2731,-804
2591,-608,-231,609,-2057,-1222
3064,-607,-313,210,-1067,-1663
3401,-761,-559,-154,-109,-1952
3638,-957,-763,-296,514,-1941
3872,-1031,-812,-234,701,-1625
4035,-992,-713,-47,613,-1029
4079,-902,-439,116,395,-332
4010,-856,-180,145,259,215
3910,-866,-74,94,242,581
3734,-890,-8,48,295,891
3491,-899,-5,-58,403,1195
3225,-952,-74,-236,510,1482
2949,-1094,-199,-411,606,1723
2687,-1259,-401,-516,732,1893
2425,-1388,-626,-531,864,1989
2240,-1476,-814,-479,1004,2023
2139,-1554,-974,-429,1242,2034
1987,-1660,-1103,-376,1506,2079
1774,-1749,-1167,-262,1663,2169
1562,-1768,-1118,-57,1697,2261
1442,-1680,-950,175,1664,2348
1311,-1556,-722,354,1593,2473
1182,-1416,-508,451,1524,2619
1001,-1357,-354,459,1562,2714
731,-1366,-350,374,1618,2749
445,-1403,-407,296,1633,2737
184,-1469,-567,265,1667,2648
84,-1511,-726,271,1802,2500
112,-1533,-801,312,2017,2365
105,-1559,-720,388,2241,2285
-64,-1513,-557,457,2392,2233
-251,-1448,-390,461,2471,2131
-486,-1482,-263,429,2440,2127
-763,-1498,-139,416,2138,2266
-1038,-1504,-107,359,1744,2405
-1293,-1517,-80,304,1361,2525
-1602,-1587,-23,285,1054,2579
-1914,-1642,25,285,871,2460
-2171,-1717,48,259,755,2168
-2333,-1781,61,230,717,1781
-2403,-1790,172,197,750,1358
-2511,-1826,310,77,824,922
-2642,-1922,401,-117,912,458
-2725,-2018,334,-316,922,21
-2734,-2110,188,-456,740,-291
-2715,-2195,124,-493,427,-469
-2664,-2205,85,-464,85,-602
-2570,-2168,64,-404,-223,-772
-2453,-2133,102,-357,-469,-994
-2333,-2059,133,-365,-655,-1248
-2222,-2008,94,-413,-787,-1507
-2126,-2014,-14,-482,-857,-1771
-1963,-1996,-118,-545,-888,-2077
-1764,-1955,-194,-590,-866,-2431
-1536,-1903,-309,-641,-791,-2813
-1228,-1837,-422,-657,-662,-3193
-893,-1800,-543,-616,-575,-3496
-573,-1793,-669,-526,-600,-3657
-266,-1775,-821,-384,-736,-3640
59,-1733,-887,-190,-1003,-3457
273,-1720,-935,11,-1363,-3158
452,-1667,-966,206,-1743,-2841
613,-1557,-886,405,-2042,-2601
773,-1417,-778,530,-2186,-2490
980,-1283,-699,534,-2124,-2493
1227,-1205,-671,449,-1920,-2535
1414,-1226,-700,350,-1714,-2529
1532,-1256,-789,351,-1683,-2447
1694,-1225,-810,449,-1796,-2316
2031,-1103,-695,546,-1870,-2156
2401,-1015,-555,562,-1806,-1970
2570,-1082,-556,491,-1667,-1759
2676,-1142,-635,441,-1604,-1560
2867,-1095,-595,489,-1534,-1404
3130,-996,-436,507,-1339,-1277
3318,-982,-326,415,-1010,-1140
3376,-1021,-285,328,-721,-982
3406,-1011,-178,320,-540,-824
3480,-967,-60,313,-384,-679
3525,-912,59,260,-261,-506
3551,-920,111,136,-124,-358
3620,-960,155,-9,72,-224
3648,-1004,124,-174,301,-66
3584,-1078,-17,-356,538,126
3412,-1193,-193,-482,737,347
3218,-1278,-313,-535,889,558
3053,-1308,-356,-543,1020,741
2872,-1333,-414,-541,1134,919
2680,-1380,-495,-546,1251,1091
2487,-1425,-557,-531,1343,1254
2331,-1435,-576,-492,1398,1410
2218,-1442,-542,-461,1470,1556
2072,-1456,-557,-457,1565,1702
1897,-1502,-620,-443,1614,1838
1720,-1535,-673,-383,1633,1971
1586,-1503,-674,-299,1620,2115
1466,-1470,-676,-217,1634,2268
1335,-1455,-695,-149,1646,2430
1170,-1445,-696,-57,1614,2607
942,-1453,-662,50,1552,2774
683,-1450,-677,146,1460,2935
466,-1407,-634,254,1322,3082
307,-1355,-524,309,1223,3165
126,-1382,-535,320,1185,3230
-121,-1395,-549,390,1043,3354
-361,-1356,-494,468,896,3442
-611,-1332,-364,546,776,3480
-905,-1341,-235,573,682,3444
-1254,-1404,-214,538,662,3291
-1624,-1486,-157,478,722,3022
-1936,-1578,-68,401,873,2633
-2152,-1640,32,315,1027,2141
-2337,-1712,109,204,1133,1604
-2569,-1814,157,58,1248,1079
-2849,-1951,163,-88,1406,566
-3055,-2094,121,-194,1480,64
-3144,-2201,86,-244,1356,-388
-3105,-2247,108,-237,1025,-717
-2973,-2216,202,-187,549,-904
-2776,-2129,303,-143,26,-1020
-2532,-2047,334,-144,-442,-1139
-2330,-1995,281,-189,-795,-1306
-2144,-1957,181,-256,-1047,-1519
-1910,-1922,49,-330,-1215,-1761
-1661,-1907,-75,-392,-1306,-2000
-1507,-1924,-233,-436,-1344,-2226
-1432,-1968,-429,-445,-1355,-2427
-1354,-1976,-572,-408,-1416,-2587
-1226,-1940,-660,-323,-1567,-2713
-1047,-1859,-712,-186,-1804,-2812
-802,-1731,-705,-38,-2078,-2888
-387,-1525,-624,87,-2260,-2979
94,-1338,-524,136,-2242,-3073
445,-1269,-526,30,-2061,-3133
697,-1380,-767,-199,-1841,-3200
960,-1498,-1051,-269,-1724,-3254
1218,-1560,-1236,-139,-1722,-3176
1426,-1555,-1363,86,-1854,-2926
1614,-1457,-1296,388,-2136,-2549
1769,-1344,-1100,628,-2392,-2169
1886,-1199,-945,738,-2550,-1887
2100,-1055,-785,765,-2566,-1743
2479,-919,-614,696,-2330,-1717
2832,-888,-544,527,-1905,-1731
3043,-931,-584,348,-1443,-1726
3170,-1002,-619,234,-1025,-1697
3352,-985,-604,222,-720,-1633
3645,-908,-441,276,-503,-1506
3962,-803,-230,296,-290,-1243
4173,-746,-94,221,-123,-905
4264,-787,-28,136,34,-532
4201,-810,65,110,114,-116
4029,-749,192,87,117,282
3788,-701,303,-14,141,605
3508,-743,234,-228,280,846
3272,-864,19,-451,452,997
3119,-981,-171,-592,636,1069
3025,-1108,-379,-661,887,1084
2972,-1206,-558,-685,1184,1087
2895,-1266,-666,-691,1459,1141
2748,-1325,-735,-703,1665,1279
2536,-1421,-803,-715,1796,1484
2299,-1504,-866,-655,1802,1749
2087,-1518,-830,-530,1700,2048
1861,-1517,-797,-415,1555,2340
1596,-1510,-799,-307,1372,2592
1370,-1508,-810,-209,1245,2773
1199,-1537,-887,-151,1253,2879
1056,-1576,-1040,-68,1326,2940
865,-1639,-1152,79,1405,3010
663,-1648,-1161,295,1412,3137
520,-1515,-1053,562,1360,3294
353,-1342,-755,782,1316,3427
61,-1254,-483,857,1336,3493
-327,-1217,-310,808,1393,3417
-631,-1272,-268,684,1475,3214
-843,-1319,-223,601,1459,3012
-1086,-1379,-151,533,1399,2842
-1462,-1466,-172,442,1442,2637
-1853,-1616,-207,353,1548,2355
-2217,-1776,-227,333,1578,2047
-2481,-1806,-136,396,1439,1742
-2703,-1799,105,447,1241,1446
-2971,-1816,328,386,1103,1125
-3222,-1843,437,236,979,737
-3379,-1908,527,50,836,284
-3366,-1946,565,-141,664,-195
-3168,-1963,490,-312,391,-614
-2854,-1997,333,-395,48,-895
-2556,-2004,201,-373,-324,-1047
-2250,-1918,194,-329,-678,-1201
-1931,-1829,194,-329,-928,-1393
-1655,-1788,153,-368,-1117,-1540
-1473,-1790,67,-419,-1324,-1609
-1354,-1828,-36,-450,-1571,-1622
-1311,-1881,-182,-442,-1842,-1615
-1264,-1899,-353,-377,-2159,-1607
-1201,-1881,-457,-275,-2476,-1592
-1173,-1822,-471,-198,-2682,-1607
-1164,-1739,-429,-193,-2717,-1719
-1193,-1656,-410,-243,-2672,-1951
-1167,-1566,-435,-299,-2660,-2297
-882,-1451,-471,-349,-2592,-2768
-321,-1322,-572,-396,-2396,-3260
376,-1180,-689,-431,-2119,-3656
1005,-1185,-827,-540,-1713,-3919
1499,-1356,-1117,-721,-1268,-4013
1856,-1571,-1460,-732,-892,-3871
1980,-1745,-1684,-442,-823,-3369
1929,-1706,-1635,53,-1264,-2651
1991,-1465,-1248,505,-1851,-2049
2262,-1255,-896,637,-2010,-1780
2695,-1131,-799,552,-1856,-1746
3107,-1111,-760,467,-1544,-1753
3329,-1139,-730,403,-1127,-1699
3365,-1213,-775,350,-797,-1573
3318,-1249,-823,406,-653,-1365
3328,-1186,-685,528,-629,-1102
3458,-1060,-440,562,-574,-843
3589,-1016,-277,434,-413,-594
3606,-1109,-267,263,-219,-356
3500,-1243,-344,169,-66,-154
3414,-1284,-410,165,65,-20
3430,-1231,-357,163,216,76
3427,-1180,-299,90,464,190
3355,-1199,-314,-20,745,321
3313,-1245,-347,-94,974,440
3284,-1259,-351,-116,1165,578
3229,-1255,-316,-124,1343,783
3085,-1271,-316,-140,1490,1068
2846,-1292,-312,-159,1536,1367
2570,-1281,-252,-156,1487,1675
2293,-1245,-194,-169,1380,1952
2047,-1247,-164,-223,1287,2137
1848,-1285,-169,-316,1299,2205
1658,-1407,-286,-413,1400,2195
1465,-1523,-502,-444,1480,2189
1231,-1647,-731,-393,1553,2226
1059,-1725,-921,-293,1628,2278
915,-1771,-1006,-143,1685,2344
768,-1759,-1005,35,1741,2420
605,-1721,-881,218,1762,2503
395,-1639,-754,359,1755,2578
169,-1555,-620,457,1736,2633
0,-1452,-422,542,1705,2645
-159,-1283,-88,571,1706,2576
-408,-1223,159,410,1922,2362
-676,-1325,155,120,2177,2027
-833,-1488,-50,-123,2234,1687
-849,-1679,-327,-177,2123,1559
-872,-1777,-495,-73,1787,1712
-1030,-1777,-487,47,1367,1968
-1354,-1793,-375,118,1124,2138
-1737,-1794,-206,136,995,2094
-2160,-1827,-73,124,922,1833
-2523,-1893,2,104,931,1435
-2735,-1933,52,94,905,976
-2757,-1947,123,45,836,532
-2640,-1961,187,-57,729,150
-2529,-1991,194,-180,569,-147
-2439,-2022,122,-282,352,-375
-2293,-2007,113,-296,47,-544
-2085,-1911,199,-238,-298,-668
-1917,-1833,290,-191,-573,-780
-1807,-1788,341,-215,-751,-947
-1730,-1785,269,-312,-863,-1177
-1675,-1857,79,-443,-915,-1428
-1627,-1981,-172,-559,-956,-1673
-1561,-2074,-433,-591,-1023,-1935
-1470,-2130,-603,-505,-1082,-2215
-1314,-2102,-689,-342,-1172,-2474
-1130,-2009,-640,-138,-1422,-2636
-880,-1832,-526,36,-1761,-2698
-460,-1606,-412,131,-2034,-2709
-49,-1501,-302,126,-2127,-2723
293,-1445,-345,39,-2105,-2742
539,-1532,-528,-5,-2038,-2695
625,-1657,-783,6,-2079,-2565
690,-1711,-1014,113,-2356,-2346
741,-1663,-1109,348,-2755,-2040
751,-1549,-1015,613,-3129,-1803
876,-1377,-879,751,-3348,-1819
1190,-1135,-724,770,-3355,-2072
1745,-888,-529,698,-3133,-2424
2610,-743,-403,469,-2559,-2730
3333,-821,-488,180,-1783,-2735
3739,-1118,-770,-89,-1239,-2366
3747,-1491,-1113,-70,-1119,-1584
3392,-1580,-1140,400,-1630,-499
3056,-1307,-688,926,-2383,436
2931,-994,-221,1033,-2690,957
2868,-861,55,814,-2574,1114
2654,-905,179,484,-2164,952
2535,-957,158,104,-1557,506
2687,-1009,13,-306,-862,-78
2892,-1197,-241,-689,-138,-616
3101,-1445,-594,-932,471,-983
3392,-1627,-880,-998,878,-1109
3674,-1729,-1114,-927,1113,-905
3812,-1821,-1224,-799,1218,-414
3703,-1948,-1298,-653,1256,194
3411,-1995,-1254,-390,1136,812
3081,-1922,-1162,-127,973,1336
2802,-1839,-1081,21,918,1756
2474,-1813,-1002,106,972,2053
2110,-1794,-949,152,1151,2149
1760,-1791,-913,164,1469,2040
1447,-1806,-891,157,1826,1821
1238,-1790,-856,142,2114,1591
1157,-1753,-798,130,2308,1414
1126,-1679,-729,117,2387,1347
1074,-1595,-679,83,2385,1406
995,-1515,-667,70,2293,1583
850,-1436,-659,75,2127,1802
749,-1327,-609,95,2023,1943
595,-1276,-561,83,2122,1968
270,-1319,-575,48,2300,1889
15,-1291,-536,44,2476,1722
-132,-1295,-436,54,2618,1567
-231,-1395,-383,13,2696,1453
-236,-1472,-305,-35,2667,1411
-276,-1533,-256,-81,2516,1457
-459,-1618,-293,-121,2293,1568
-654,-1698,-341,-115,2067,1672
-814,-1732,-313,-63,1871,1730
-1023,-1768,-287,-29,1723,1730
-1307,-1847,-255,-13,1645,1669
-1586,-1925,-158,17,1583,1554
-1807,-1988,-16,57,1447,1370
-1950,-2034,151,54,1228,1148
-2047,-2084,253,-7,971,955
-2173,-2159,225,-94,668,817
-2321,-2272,117,-162,354,666
-2437,-2367,-20,-185,82,451
-2503,-2393,-92,-139,-164,182
-2486,-2345,-3,-51,-382,-117
-2406,-2250,136,-4,-552,-433
-2270,-2156,267,-9,-750,-747
-2042,-2061,363,-40,-952,-1060
-1774,-2011,326,-91,-1123,-1373
-1474,-1977,193,-149,-1319,-1664
-1132,-1952,109,-210,-1488,-1912
-844,-1957,-10,-305,-1579,-2100
-539,-1982,-218,-389,-1603,-2218
-278,-2045,-423,-375,-1557,-2253
-178,-2151,-611,-284,-1542,-2207
-218,-2238,-770,-132,-1664,-2115
-293,-2225,-859,74,-1922,-1984
-358,-2121,-866,287,-2257,-1866
-237,-1922,-804,432,-2533,-1862
55,-1694,-644,513,-2612,-2025
380,-1540,-521,492,-2488,-2308
670,-1474,-587,327,-2171,-2673
930,-1511,-775,182,-1790,-2978
1162,-1638,-989,163,-1595,-3055
1389,-1650,-1155,320,-1660,-2800
1538,-1637,-1156,588,-1892,-2273
1546,-1551,-1077,802,-2210,-1673
1439,-1327,-968,958,-2578,-1237
1470,-1148,-757,1046,-2722,-1167
1824,-959,-579,951,-2502,-1416
2265,-823,-460,711,-2029,-1781
2634,-818,-468,438,-1417,-2116
3010,-720,-490,235,-818,-2298
3371,-736,-528,100,-423,-2273
3704,-799,-578,13,-229,-2064
4004,-813,-566,27,-100,-1678
4219,-797,-441,106,-35,-1169
4293,-786,-286,139,2,-641
4299,-789,-200,126,73,-184
4221,-815,-172,118,165,231
4057,-821,-140,138,215,635
3871,-780,-56,124,328,982
3650,-763,-1,18,581,1224
3365,-825,-36,-127,853,1398
3062,-914,-111,-246,1057,1538
2851,-979,-155,-346,1217,1655
2666,-1050,-192,-440,1392,1765
2451,-1138,-287,-537,1566,1873
2238,-1235,-408,-606,1733,1958
2041,-1328,-549,-624,1891,2025
1815,-1395,-673,-570,1982,2101
1644,-1393,-682,-452,2003,2207
1476,-1368,-621,-335,1999,2340
1272,-1345,-554,-250,1974,2484
1043,-1319,-481,-188,1930,2608
776,-1302,-449,-165,1958,2677
450,-1318,-464,-184,2025,2653
173,-1322,-402,-186,2105,2514
-22,-1325,-258,-209,2259,2255
-145,-1342,-215,-335,2422,1899
-197,-1426,-301,-446,2512,1644
-174,-1569,-460,-528,2501,1555
-125,-1697,-621,-525,2344,1619
-185,-1797,-744,-422,2055,1821
-312,-1814,-759,-279,1756,2085
-526,-1755,-640,-138,1519,2322
-900,-1737,-459,-74,1406,2405
-1354,-1762,-302,-110,1498,2207
-1770,-1866,-205,-198,1743,1774
-2123,-2081,-210,-310,1898,1268
-2314,-2301,-313,-407,1814,853
-2286,-2495,-482,-420,1511,619
-2237,-2619,-597,-327,1051,587
-2327,-2686,-600,-200,599,621
-2456,-2674,-526,-80,299,522
-2549,-2563,-364,22,145,254
-2591,-2434,-144,83,63,-77
-2593,-2307,77,129,-68,-389
-2510,-2170,295,157,-329,-652
-2355,-2047,436,123,-710,-878
-2102,-1932,438,27,-1072,-1112
-1818,-1886,300,-124,-1280,-1372
-1594,-1924,52,-284,-1356,-1650
-1416,-1996,-214,-360,-1416,-1913
-1242,-2064,-478,-343,-1515,-2104
-1034,-2100,-694,-222,-1683,-2207
-801,-2040,-787,0,-1917,-2232
-598,-1911,-746,242,-2161,-2197
-473,-1751,-612,423,-2409,-2164
-377,-1590,-499,501,-2598,-2234
-225,-1439,-445,495,-2734,-2408
1,-1307,-441,451,-2842,-2602
156,-1198,-447,401,-2965,-2736
275,-1146,-453,327,-3179,-2804
355,-1051,-474,255,-3496,-2815
513,-928,-510,176,-3774,-2930
969,-822,-697,44,-3726,-3265
1695,-738,-908,-50,-3399,-3681
2742,-706,-1080,-150,-2660,-4003
3620,-824,-1336,-288,-1603,-3903
3943,-1165,-1677,-513,-873,-3332
3727,-1582,-1961,-387,-669,-2405
3433,-1594,-1826,233,-1024,-1333
3443,-1216,-1265,826,-1495,-534
3583,-854,-708,1051,-1623,-75
3635,-618,-354,989,-1420,176
3572,-493,-124,823,-1026,238
3536,-420,55,574,-546,129
3672,-418,125,193,2,-125
3903,-509,62,-210,516,-354
4085,-682,-115,-514,950,-417
4152,-891,-379,-669,1256,-268
4102,-1054,-603,-695,1352,91
3919,-1179,-784,-631,1296,635
3640,-1225,-881,-527,1156,1268
3293,-1294,-934,-409,1085,1799
2945,-1327,-953,-277,1071,2178
2595,-1304,-892,-142,1079,2443
2254,-1280,-769,-64,1167,2582
1972,-1261,-671,-81,1363,2591
1694,-1310,-624,-134,1599,2517
1439,-1381,-645,-180,1807,2414
1291,-1382,-635,-182,1939,2339
1156,-1414,-614,-172,2075,2290
933,-1495,-681,-173,2155,2274
715,-1543,-786,-107,2081,2293
510,-1551,-833,50,1982,2333
354,-1482,-762,193,1971,2345
277,-1463,-647,223,2118,2300
172,-1505,-560,213,2298,2247
-34,-1497,-387,222,2416,2202
-297,-1496,-189,191,2448,2136
-466,-1501,-100,108,2321,2077
-643,-1557,-60,22,2106,2084
-965,-1686,-109,-107,1867,2102
-1333,-1820,-240,-200,1654,2046
-1610,-1905,-316,-194,1518,1908
-1821,-1968,-312,-142,1493,1668
-1990,-2036,-250,-118,1532,1350
-2134,-2099,-158,-122,1508,1003
-2199,-2127,-28,-113,1396,653
-2180,-2103,118,-111,1190,354
-2139,-2098,234,-152,877,137
-2130,-2141,191,-236,531,-8
-2144,-2233,39,-315,175,-106
-2105,-2289,-111,-339,-169,-198
-2018,-2292,-191,-311,-454,-316
-1888,-2263,-213,-260,-657,-495
-1696,-2195,-170,-199,-795,-716
-1449,-2083,-72,-163,-925,-916
-1230,-2001,-4,-178,-1026,-1072
-1104,-1978,-34,-242,-1107,-1189
-1003,-1989,-141,-294,-1212,-1287
-881,-2001,-261,-309,-1347,-1391
-705,-2000,-381,-303,-1473,-1509
-487,-1998,-485,-287,-1533,-1621
-332,-2040,-603,-271,-1521,-1706
-246,-2110,-774,-232,-1477,-1763
-135,-2166,-911,-113,-1495,-1789
-15,-2139,-947,90,-1639,-1733
38,-2013,-872,320,-1904,-1568
34,-1833,-697,477,-2212,-1390
112,-1672,-516,483,-2359,-1373
339,-1557,-447,377,-2269,-1570
643,-1534,-505,253,-2020,-1874
937,-1562,-638,180,-1784,-2096
1182,-1593,-722,190,-1724,-2112
1291,-1619,-779,262,-1804,-1925
1295,-1617,-814,377,-1971,-1634
1263,-1570,-734,503,-2203,-1347
1313,-1471,-610,573,-2440,-1158
1465,-1335,-500,568,-2518,-1095
1675,-1249,-444,475,-2385,-1160
1979,-1190,-430,305,-2080,-1321
2251,-1222,-493,128,-1712,-1458
2484,-1258,-579,16,-1457,-1479
2729,-1216,-554,20,-1259,-1375
2933,-1183,-490,56,-1059,-1189
3060,-1150,-383,85,-926,-962
3116,-1128,-279,89,-804,-749
3243,-1094,-162,43,-658,-586
3418,-1105,-105,-27,-455,-441
3524,-1115,-92,-94,-274,-274
3582,-1169,-134,-221,-44,-181
3621,-1266,-249,-349,217,-100
3678,-1353,-366,-447,434,21
3653,-1466,-570,-538,665,207
3525,-1597,-816,-566,811,488
3352,-1688,-986,-491,864,840
3158,-1732,-1034,-379,922,1189
2930,-1768,-1084,-270,1028,1470
2661,-1764,-1111,-158,1142,1684
2401,-1730,-1068,-55,1269,1821
2216,-1684,-990,6,1435,1875
2001,-1670,-944,39,1628,1882
1776,-1637,-926,85,1787,1892
1599,-1591,-856,174,1874,1949
1442,-1557,-758,199,1904,2011
1261,-1538,-713,186,1918,2077
1032,-1574,-734,181,1850,2189
811,-1612,-804,181,1738,2313
584,-1641,-897,215,1649,2410
327,-1697,-995,290,1642,2431
136,-1737,-1056,378,1781,2337
-9,-1755,-1020,467,2005,2151
-154,-1728,-887,587,2191,1954
