ax,ay,az,gx,gy,gz
-1902,-1099,-278,-895,-210,-4667
-1562,-1021,-284,-814,0,-5142
-1148,-959,-238,-757,347,-5552
-891,-959,-293,-766,762,-5830
-719,-975,-395,-724,927,-6012
-548,-956,-418,-576,874,-6153
-402,-887,-432,-411,731,-6285
-210,-837,-435,-235,638,-6471
95,-745,-441,-77,646,-6659
484,-615,-370,71,597,-6785
893,-512,-207,209,617,-6810
1132,-430,-25,258,875,-6771
1189,-385,25,224,1191,-6695
1195,-377,-25,225,1250,-6605
1255,-341,-10,304,1107,-6548
1471,-275,-15,386,995,-6544
1797,-224,-62,467,904,-6493
2018,-121,2,592,905,-6368
2265,51,18,739,956,-6256
2703,181,70,884,785,-6061
3079,306,210,1042,504,-5666
3306,452,427,1091,396,-5199
3475,542,645,1021,560,-4766
3605,602,833,880,804,-4370
3676,664,902,719,1045,-3980
3789,729,960,606,1115,-3493
3969,826,1049,592,929,-2827
4076,915,1144,594,499,-2012
4087,954,1283,559,35,-1197
4062,1006,1372,459,-283,-506
4050,1050,1425,301,-466,116
3918,1021,1467,87,-377,722
3571,936,1397,-168,-159,1236
3235,824,1249,-418,-75,1603
3017,693,1076,-632,-98,1875
2854,565,906,-783,-94,2120
2739,436,752,-880,-59,2370
2728,368,631,-915,-119,2668
2678,302,581,-933,-209,3014
2541,231,539,-999,-187,3354
2446,173,481,-1080,-60,3666
2359,67,448,-1156,175,3969
2117,-52,346,-1259,425,4279
1712,-163,202,-1328,455,4552
1331,-336,100,-1309,283,4730
1130,-466,38,-1249,36,4867
1086,-561,-34,-1162,-223,4981
989,-653,-68,-1097,-388,5089
848,-733,-165,-1101,-423,5196
765,-837,-328,-1085,-385,5293
692,-968,-458,-1018,-349,5384
609,-1053,-500,-910,-394,5482
520,-1137,-526,-766,-542,5623
415,-1174,-524,-543,-836,5834
267,-1141,-409,-263,-1212,6083
89,-1094,-287,-60,-1446,6251
-74,-1057,-190,51,-1568,6347
-151,-991,-120,134,-1558,6420
-257,-946,-111,179,-1399,6499
-616,-967,-97,156,-1233,6594
-1136,-1065,-115,160,-1159,6624
-1497,-1162,-103,282,-1303,6526
-1616,-1141,-3,474,-1571,6344
-1746,-1071,71,578,-1727,6154
-2090,-1096,85,623,-1743,5977
-2501,-1123,148,771,-1715,5721
-2857,-1090,328,957,-1683,5311
-3174,-1063,551,1011,-1530,4781
-3452,-1042,738,960,-1213,4151
-3671,-1032,871,844,-843,3451
-3867,-1062,999,674,-463,2719
-4001,-1120,1019,459,-76,1986
-3984,-1104,996,288,170,1292
-3846,-1110,1035,145,257,680
-3662,-1090,1085,-10,320,192
-3491,-1045,1067,-176,398,-195
-3422,-1050,1044,-338,431,-517
-3372,-1110,985,-486,403,-805
-3273,-1158,916,-606,326,-1105
-3153,-1215,806,-717,282,-1422
-3014,-1260,691,-799,308,-1732
-2890,-1293,605,-840,319,-2022
-2810,-1262,512,-892,240,-2259
-2739,-1288,399,-932,131,-2461
-2593,-1244,351,-939,-79,-2683
-2399,-1212,372,-943,-243,-2925
-2155,-1148,376,-1008,-250,-3158
-1878,-1095,344,-1142,-144,-3402
-1755,-1185,216,-1342,103,-3652
-1650,-1211,-58,-1462,333,-3894
-1361,-1182,-296,-1410,415,-4121
-1055,-1224,-352,-1284,561,-4328
-845,-1283,-341,-1190,724,-4449
-687,-1253,-312,-1104,766,-4519
-524,-1217,-262,-1010,733,-4582
-372,-1200,-239,-944,695,-4642
-252,-1213,-295,-914,722,-4710
-103,-1231,-376,-862,834,-4814
126,-1209,-449,-758,972,-4933
228,-1191,-571,-647,978,-4993
202,-1186,-678,-508,909,-5037
123,-1155,-715,-305,910,-5194
163,-1086,-682,-77,963,-5456
429,-927,-586,157,988,-5726
712,-757,-472,353,847,-5883
826,-660,-404,446,735,-5969
909,-568,-410,525,763,-6086
1053,-400,-407,665,706,-6208
1241,-206,-334,818,507,-6291
1400,-34,-190,907,400,-6383
1668,109,-61,940,524,-6530
1995,339,-15,971,720,-6657
2317,506,18,969,756,-6620
2728,602,56,976,714,-6426
3296,738,142,1033,568,-6075
4035,806,402,1066,338,-5483
4714,916,778,986,280,-4673
5077,1011,1037,721,410,-3655
5050,1006,1057,321,573,-2508
4751,935,813,-21,571,-1406
4319,869,524,-127,269,-461
3926,868,468,-36,-124,248
3641,840,619,52,-319,694
3442,820,792,-10,-299,914
3315,794,859,-216,-64,999
3231,750,792,-496,295,1070
3146,667,662,-747,581,1198
3061,562,525,-947,708,1396
2982,484,385,-1087,680,1665
2905,402,269,-1193,603,1990
2778,286,180,-1269,579,2315
2623,193,131,-1305,565,2601
2469,90,92,-1321,569,2853
2325,-20,68,-1316,487,3107
2155,-97,46,-1303,346,3365
1947,-164,5,-1309,279,3564
1749,-259,-28,-1328,318,3692
1568,-383,-107,-1338,389,3777
1433,-493,-196,-1336,453,3841
1379,-599,-210,-1307,510,3916
1349,-709,-227,-1278,553,4010
1299,-783,-281,-1257,502,4158
1214,-857,-341,-1226,288,4400
1133,-951,-427,-1178,-19,4693
1118,-995,-500,-1103,-290,4998
1013,-1038,-648,-1018,-497,5329
783,-1089,-867,-876,-796,5695
600,-1118,-958,-591,-1140,6048
419,-1097,-821,-210,-1367,6316
121,-1043,-575,99,-1500,6503
-264,-1032,-375,269,-1596,6626
-633,-1088,-254,371,-1624,6631
-888,-1138,-148,479,-1590,6509
-950,-1138,-85,580,-1584,6357
-925,-1103,-49,651,-1630,6288
-1085,-1112,15,686,-1597,6290
-1346,-1115,98,725,-1471,6248
-1570,-1076,156,789,-1390,6149
-1834,-1072,195,836,-1469,6054
-2198,-1079,249,867,-1540,5897
-2573,-1065,315,941,-1571,5593
-2892,-1025,452,1011,-1600,5180
-3257,-1037,679,1008,-1450,4678
-3660,-1080,863,911,-1046,4035
-3980,-1101,942,736,-571,3271
-4154,-1124,963,531,-262,2508
-4167,-1116,982,352,-167,1828
-4065,-1099,1022,188,-174,1214
-3907,-1112,1033,-1,-162,665
-3790,-1125,1046,-200,-35,157
-3726,-1179,1040,-392,177,-323
-3615,-1232,898,-579,301,-745
-3400,-1259,716,-685,186,-1090
-3147,-1264,575,-726,-47,-1368
-2970,-1299,456,-769,-155,-1605
-2918,-1350,348,-798,-141,-1831
-2906,-1380,276,-785,-189,-2066
-2806,-1342,246,-753,-342,-2330
-2665,-1313,239,-749,-365,-2631
-2599,-1314,225,-788,-244,-2957
-2538,-1304,165,-850,-51,-3340
-2376,-1275,86,-894,50,-3754
-2141,-1242,13,-908,101,-4144
-1913,-1182,-42,-904,223,-4493
-1696,-1134,-49,-880,330,-4797
-1482,-1102,-97,-850,388,-5065
-1297,-1084,-236,-837,344,-5286
-1003,-1019,-322,-774,178,-5497
-670,-945,-281,-659,119,-5692
-447,-893,-228,-606,326,-5871
-300,-843,-228,-606,534,-6054
-167,-791,-290,-602,674,-6250
7,-755,-360,-563,840,-6472
284,-698,-432,-476,946,-6654
572,-629,-429,-326,891,-6708
801,-567,-364,-180,682,-6628
1028,-531,-341,-103,441,-6495
1253,-489,-365,-59,238,-6327
1463,-456,-404,-13,144,-6141
1635,-429,-434,59,143,-5957
1745,-376,-356,152,226,-5805
1858,-352,-228,214,505,-5733
1981,-237,-182,184,870,-5629
2105,-189,-176,151,943,-5353
2192,-242,-226,188,817,-5041
2306,-230,-269,301,651,-4764
2538,-86,-228,484,417,-4447
2801,49,-128,635,73,-4033
3015,161,37,738,-242,-3583
3194,328,174,809,-402,-3193
3341,535,352,815,-375,-2895
3449,663,589,750,-159,-2659
3540,750,771,605,100,-2441
3634,794,854,389,312,-2183
3696,798,806,173,490,-1845
3769,796,689,45,572,-1420
3845,804,588,11,410,-905
3894,801,556,1,163,-331
3814,780,573,-48,83,245
3583,753,599,-135,124,758
3375,684,553,-257,150,1175
3258,600,461,-377,168,1524
3137,514,379,-474,206,1859
3024,425,297,-552,270,2195
2974,333,209,-598,321,2537
2923,241,153,-611,320,2906
2850,174,132,-610,285,3280
2717,114,94,-607,245,3642
2546,36,95,-588,169,3985
2292,-51,103,-572,96,4289
2020,-123,87,-568,21,4534
1798,-235,96,-562,-58,4699
1668,-344,80,-570,-120,4819
1560,-448,-13,-607,-113,4948
1411,-551,-125,-628,-133,5102
1280,-631,-224,-606,-188,5240
1126,-703,-280,-564,-302,5388
927,-790,-313,-507,-431,5551
759,-880,-300,-420,-571,5654
701,-924,-223,-334,-699,5700
605,-960,-212,-300,-753,5776
405,-1035,-274,-288,-830,5900
191,-1151,-362,-222,-886,5986
22,-1210,-449,-87,-1008,6045
-149,-1232,-496,98,-1223,6137
-320,-1245,-414,326,-1483,6227
-456,-1222,-217,562,-1765,6289
-659,-1170,7,710,-1952,6308
-934,-1160,148,747,-1971,6244
-1163,-1148,212,752,-1892,6108
-1458,-1181,203,718,-1737,5906
-1881,-1264,90,701,-1557,5664
-2230,-1298,19,834,-1544,5389
-2389,-1243,174,1080,-1683,5043
-2567,-1160,487,1225,-1698,4643
-2897,-1107,734,1186,-1453,4223
-3228,-1092,910,1072,-1155,3723
-3492,-1094,1066,908,-899,3137
-3693,-1129,1130,683,-656,2527
-3802,-1171,1155,455,-393,1886
-3869,-1197,1165,227,-64,1213
-3859,-1222,1100,-8,267,558
-3716,-1261,966,-193,430,-12
-3432,-1280,875,-300,438,-493
-3181,-1309,873,-364,454,-891
-3002,-1357,892,-442,479,-1222
-2821,-1377,835,-541,472,-1516
-2614,-1410,751,-637,395,-1753
-2431,-1430,660,-714,337,-1952
-2381,-1473,549,-768,341,-2140
-2384,-1490,434,-802,426,-2354
-2337,-1481,339,-799,481,-2608
-2215,-1469,287,-789,462,-2883
-2104,-1483,261,-791,537,-3171
-1979,-1470,224,-806,642,-3453
-1770,-1428,213,-829,660,-3728
-1447,-1380,228,-873,705,-3987
-1222,-1367,175,-965,893,-4200
-1111,-1393,38,-1038,1084,-4376
-997,-1405,-161,-1018,1127,-4541
-854,-1394,-270,-898,1029,-4705
-727,-1343,-281,-761,1003,-4880
-641,-1291,-268,-645,1002,-5063
-565,-1230,-267,-550,975,-5270
-418,-1124,-292,-461,959,-5507
-140,-987,-319,-377,939,-5731
226,-899,-291,-298,1004,-5904
537,-778,-209,-249,1221,-6017
768,-728,-113,-232,1557,-6085
869,-697,-85,-258,1878,-6135
898,-701,-152,-270,2169,-6203
921,-651,-161,-183,2423,-6288
964,-554,-85,-36,2587,-6385
1092,-439,8,102,2639,-6479
1385,-340,100,220,2545,-6504
1873,-201,165,329,2248,-6360
2646,-71,311,423,1834,-6013
3435,-28,449,408,1595,-5466
3943,-101,400,264,1520,-4678
4108,-162,163,228,1271,-3661
3957,-165,42,447,643,-2568
3578,-131,118,780,86,-1705
3256,-47,341,1033,-111,-1213
3126,54,605,1143,-259,-948
3139,126,833,1142,-462,-759
3185,188,1033,1054,-460,-619
3311,277,1210,868,-201,-529
3563,358,1318,593,116,-396
3742,399,1315,277,357,-134
3683,367,1211,-29,552,256
3422,289,1079,-238,689,678
3108,230,986,-353,599,1049
2884,170,939,-432,342,1347
2700,95,935,-524,182,1561
2542,29,946,-641,171,1685
2421,-11,931,-797,217,1761
2322,-103,844,-995,295,1837
2262,-205,686,-1165,307,1948
2218,-297,539,-1276,249,2086
2172,-392,377,-1352,228,2230
2157,-483,256,-1377,231,2389
2093,-569,164,-1359,179,2594
1932,-638,97,-1319,117,2820
1773,-695,64,-1254,72,3007
1680,-745,39,-1184,-41,3164
1599,-799,3,-1130,-170,3327
1509,-848,-13,-1089,-229,3490
1387,-907,-49,-1074,-245,3652
1290,-967,-153,-1072,-300,3834
1245,-1030,-220,-1026,-403,4039
1197,-1058,-255,-952,-518,4277
1053,-1099,-311,-896,-647,4572
853,-1132,-424,-822,-810,4893
649,-1165,-464,-674,-1023,5169
490,-1186,-417,-499,-1274,5383
357,-1193,-385,-374,-1350,5550
144,-1217,-424,-320,-1246,5700
-204,-1263,-528,-285,-1139,5816
-588,-1350,-601,-223,-1050,5837
-975,-1469,-640,-138,-761,5743
-1316,-1589,-677,-21,-447,5547
-1503,-1645,-606,167,-572,5359
-1486,-1582,-405,424,-1033,5242
-1408,-1456,-108,625,-1578,5219
-1541,-1326,117,665,-1906,5259
-2109,-1355,211,587,-1828,5203
-2875,-1439,288,524,-1441,4854
-3486,-1503,348,479,-1120,4253
-3845,-1526,449,425,-1052,3535
-3987,-1523,594,312,-987,2755
-3961,-1484,665,117,-820,1977
-3819,-1458,616,-118,-729,1301
-3685,-1469,482,-315,-709,734
-3534,-1508,353,-431,-631,191
-3326,-1536,335,-460,-511,-361
-3085,-1533,361,-500,-414,-857
-2913,-1568,323,-601,-306,-1257
-2834,-1619,252,-681,-234,-1621
-2722,-1623,202,-720,-250,-1985
-2547,-1601,122,-767,-299,-2337
-2355,-1595,28,-799,-287,-2678
-2153,-1581,-74,-786,-216,-3023
-1969,-1606,-149,-738,-170,-3351
-1737,-1589,-179,-671,-153,-3653
-1495,-1537,-159,-605,-99,-3921
-1306,-1475,-135,-556,-41,-4156
-1120,-1432,-114,-530,-21,-4366
-956,-1382,-99,-537,20,-4594
-841,-1313,-108,-575,199,-4870
-713,-1259,-147,-625,516,-5188
-565,-1186,-154,-636,799,-5511
-386,-1053,-195,-641,881,-5789
-128,-938,-275,-638,880,-6012
64,-921,-266,-586,1027,-6223
255,-766,-217,-527,1096,-6459
520,-565,-86,-490,983,-6672
785,-382,32,-521,1084,-6875
1042,-196,55,-593,1338,-7068
1355,-49,63,-664,1544,-7223
1655,25,103,-703,1834,-7329
1994,138,129,-670,2076,-7348
2535,302,110,-601,1843,-7147
3274,384,101,-506,1213,-6628
4012,361,54,-395,583,-5802
4459,315,141,-262,152,-4791
4525,311,264,-236,258,-3835
4207,331,340,-294,864,-3044
3621,222,345,-430,1412,-2396
3146,34,226,-525,1689,-1988
3063,-23,53,-451,1575,-1717
3249,52,32,-187,881,-1302
3448,141,158,108,47,-739
3582,269,368,298,-407,-224
3605,384,591,339,-548,199
3571,444,714,241,-566,587
3508,458,726,69,-502,955
3413,400,641,-122,-325,1297
3411,319,563,-282,-78,1613
3423,271,447,-422,242,1951
3233,160,280,-569,519,2370
2971,11,97,-633,637,2850
2684,-127,-32,-550,440,3343
2433,-229,-44,-386,55,3809
2323,-287,-63,-210,-267,4213
2295,-303,-8,-37,-527,4581
2144,-302,137,82,-669,4941
1816,-324,229,70,-662,5272
1359,-418,212,-29,-645,5505
902,-591,124,-141,-681,5601
585,-791,57,-190,-789,5596
446,-928,35,-178,-991,5534
476,-1028,48,-165,-1266,5484
690,-1050,82,-172,-1479,5506
804,-1041,52,-249,-1554,5630
646,-1044,-90,-375,-1484,5853
321,-1095,-291,-413,-1295,6029
-91,-1141,-400,-329,-1229,6097
-467,-1210,-357,-156,-1347,6027
-635,-1239,-211,19,-1477,5829
-715,-1255,-53,99,-1496,5598
-837,-1291,-21,54,-1370,5408
-961,-1311,-36,27,-1291,5254
-1096,-1307,11,66,-1392,5150
-1237,-1282,105,101,-1586,5083
-1488,-1294,124,89,-1750,5017
-1862,-1365,101,82,-1851,4882
-2118,-1404,109,132,-1854,4565
-2254,-1426,141,154,-1684,4112
-2412,-1442,141,114,-1318,3633
-2667,-1483,76,67,-905,3163
-2884,-1530,1,82,-643,2716
-2929,-1505,38,174,-562,2292
-3006,-1441,181,248,-477,1940
-3254,-1436,314,179,-229,1536
-3417,-1407,371,79,-46,1091
-3479,-1391,372,-18,-87,689
-3611,-1416,346,-134,-128,304
-3654,-1453,319,-225,-44,-170
-3526,-1444,301,-290,47,-683
-3413,-1462,276,-370,101,-1141
-3297,-1507,207,-445,195,-1587
-3092,-1538,167,-475,264,-2033
-2879,-1523,165,-487,297,-2439
-2703,-1496,120,-516,304,-2789
-2573,-1525,62,-548,271,-3104
-2464,-1519,4,-556,215,-3428
-2240,-1469,-26,-530,112,-3766
-1922,-1363,-23,-535,-3,-4068
-1672,-1329,-63,-588,74,-4330
-1489,-1310,-146,-647,263,-4592
-1322,-1292,-271,-692,396,-4859
-1098,-1260,-369,-690,439,-5116
-843,-1204,-405,-651,470,-5350
-596,-1149,-424,-610,554,-5560
-346,-1087,-452,-573,621,-5738
-102,-1019,-449,-525,675,-5878
125,-936,-398,-471,775,-5997
317,-862,-358,-442,920,-6110
524,-789,-354,-437,1062,-6201
771,-709,-347,-421,1109,-6245
1059,-618,-316,-379,1080,-6236
1364,-538,-290,-339,1083,-6183
1659,-473,-192,-316,1159,-6085
1910,-405,-151,-323,1323,-5939
2160,-295,-123,-321,1378,-5724
2260,-322,-98,-329,1478,-5471
2310,-357,-124,-327,1751,-5276
2519,-234,-115,-220,1755,-5053
2798,-119,4,-83,1332,-4650
2989,-79,131,-17,1005,-4178
3104,-48,241,-21,1048,-3798
3231,-57,221,-87,1282,-3462
3453,-2,165,-104,1168,-3033
3603,48,203,-36,778,-2463
3604,48,258,7,634,-1920
3609,78,311,33,597,-1461
3681,121,331,45,445,-1004
3777,174,349,64,169,-486
3837,231,435,105,-132,62
3884,260,517,82,-227,579
3857,240,540,-19,-119,1063
3688,184,451,-150,30,1529
3464,124,308,-245,84,1967
3256,34,224,-269,83,2369
3123,-46,195,-264,68,2728
3011,-131,176,-286,94,3087
2813,-216,59,-343,140,3471
2549,-333,-67,-359,125,3835
2294,-411,-154,-284,12,4156
2074,-458,-153,-178,-178,4440
1848,-531,-169,-120,-268,4690
1594,-635,-176,-74,-309,4887
1363,-733,-156,-14,-448,5029
1206,-788,-129,43,-697,5148
1050,-859,-128,61,-905,5256
896,-956,-163,54,-995,5338
805,-1048,-214,70,-1016,5391
795,-1113,-264,112,-1084,5471
749,-1131,-279,181,-1190,5628
526,-1154,-328,252,-1320,5841
248,-1165,-367,362,-1511,6042
-41,-1180,-314,525,-1732,6165
-288,-1165,-179,673,-1894,6200
-563,-1178,-97,743,-1887,6158
-842,-1222,-111,770,-1834,6066
-1083,-1255,-87,864,-1921,5940
-1343,-1280,-48,973,-2005,5781
-1568,-1279,55,1073,-1971,5566
-1733,-1232,229,1165,-1918,5299
-1938,-1207,416,1168,-1860,5037
-2277,-1214,523,1089,-1691,4744
-2620,-1231,581,1015,-1519,4370
-2836,-1202,711,979,-1416,3909
-3006,-1193,847,895,-1317,3408
-3253,-1171,962,739,-1105,2907
-3517,-1150,1045,553,-804,2357
-3676,-1153,1071,337,-574,1757
-3785,-1182,1000,107,-417,1169
-3858,-1224,947,-69,-250,566
-3775,-1231,974,-193,-57,-92
-3556,-1230,944,-351,142,-731
-3322,-1280,850,-522,280,-1274
-3090,-1315,814,-617,316,-1732
-2843,-1310,814,-682,258,-2114
-2568,-1307,790,-788,159,-2421
-2310,-1326,688,-919,119,-2665
-2086,-1367,522,-1019,113,-2855
-1935,-1425,364,-1069,90,-3021
-1820,-1443,283,-1085,115,-3211
-1716,-1456,215,-1098,185,-3409
-1610,-1468,167,-1108,192,-3589
-1494,-1479,155,-1105,180,-3788
-1358,-1429,114,-1126,183,-4009
-1213,-1408,-25,-1174,166,-4199
-1023,-1396,-183,-1173,127,-4377
-833,-1384,-273,-1091,119,-4555
-670,-1335,-265,-1007,205,-4746
-498,-1289,-227,-962,411,-4968
-343,-1231,-228,-949,681,-5203
-214,-1183,-272,-936,947,-5438
-93,-1150,-347,-889,1171,-5672
102,-1088,-418,-796,1244,-5868
337,-1022,-430,-664,1107,-5963
558,-954,-414,-527,838,-5954
822,-843,-424,-415,455,-5866
1144,-713,-448,-325,-103,-5679
1447,-601,-421,-267,-495,-5484
1717,-503,-345,-275,-411,-5392
1921,-403,-249,-334,78,-5401
2034,-350,-234,-411,772,-5464
2208,-254,-202,-427,1267,-5494
2407,-201,-99,-396,1499,-5406
2567,-169,-56,-378,1598,-5204
2772,-126,-50,-351,1490,-4900
2964,-109,-44,-302,1235,-4505
3147,-35,-22,-248,1007,-4086
3255,56,-6,-211,955,-3682
3287,117,10,-182,1027,-3306
3322,196,58,-142,1081,-2978
3402,251,150,-98,1118,-2691
3610,356,226,-59,1144,-2399
3866,467,321,-17,1057,-1992
4088,533,434,5,917,-1440
4236,601,534,-13,736,-792
4238,640,554,-57,533,-72
4045,628,518,-124,347,646
3757,578,478,-194,253,1251
3450,520,450,-261,288,1694
3165,448,361,-353,401,2027
2941,314,214,-446,557,2311
2753,145,124,-479,635,2589
2582,52,119,-446,640,2867
2412,-5,135,-402,569,3140
2243,-80,171,-373,458,3400
2090,-159,247,-370,379,3626
1981,-261,287,-412,342,3806
1883,-330,191,-485,282,3988
1755,-415,88,-521,270,4167
1608,-509,0,-528,310,4312
1487,-594,-41,-499,303,4443
1351,-694,-39,-461,317,4565
1221,-790,-84,-443,303,4703
1164,-863,-144,-371,126,4873
1099,-893,-113,-254,-52,5040
973,-909,-41,-190,-90,5193
844,-942,18,-169,-102,5346
668,-981,63,-176,-167,5507
521,-1026,44,-189,-316,5695
410,-1038,25,-176,-608,5930
224,-1030,-15,-146,-833,6174
-27,-1085,-188,-83,-1017,6394
-216,-1085,-263,97,-1237,6562
-420,-1069,-205,318,-1320,6655
-765,-1079,-211,459,-1356,6736
-1110,-1066,-203,605,-1543,6779
-1400,-1032,-41,817,-1865,6732
-1731,-970,191,980,-2151,6646
-2143,-923,376,1049,-2219,6485
-2636,-962,507,1061,-2193,6212
-3096,-1015,631,1066,-2181,5755
-3427,-1061,834,1099,-2117,5130
-3594,-1022,1140,1086,-1986,4410
-3742,-1000,1364,902,-1654,3633
-3911,-1025,1406,598,-1124,2835
-4093,-1084,1327,311,-599,2031
-4123,-1138,1246,106,-290,1233
-3934,-1159,1233,-32,-101,455
-3660,-1164,1217,-184,136,-230
-3333,-1178,1145,-349,351,-773
-3097,-1254,1094,-481,466,-1193
-2872,-1314,1057,-591,516,-1546
-2643,-1324,996,-681,474,-1813
-2484,-1345,930,-785,394,-2003
-2418,-1410,808,-892,312,-2164
-2411,-1443,681,-947,196,-2345
-2400,-1453,544,-974,101,-2573
-2328,-1493,409,-982,78,-2862
-2167,-1478,350,-963,80,-3206
-1891,-1408,368,-946,203,-3571
-1599,-1335,357,-1011,485,-3908
-1440,-1353,284,-1103,866,-4191
-1337,-1364,149,-1151,1104,-4446
-1186,-1342,66,-1105,1129,-4680
-1036,-1297,36,-1035,1153,-4914
-960,-1262,14,-977,1218,-5176
-940,-1201,-33,-920,1291,-5485
-831,-1120,-112,-825,1253,-5833
-594,-992,-124,-673,1129,-6187
-281,-830,-58,-522,1071,-6523
106,-667,-11,-444,1136,-6809
572,-538,47,-431,1311,-7002
979,-452,135,-445,1660,-7108
1135,-470,162,-506,2128,-7154
1117,-480,116,-550,2532,-7185
1102,-429,43,-470,2716,-7233
1180,-327,49,-299,2599,-7266
1383,-193,124,-119,2345,-7272
1705,-61,189,16,2079,-7202
2021,52,295,123,1799,-7033
2320,102,403,190,1550,-6810
2745,353,479,217,1346,-6523
3172,427,446,218,1212,-6027
3506,412,359,218,968,-5309
3713,442,369,313,689,-4535
3820,514,522,430,552,-3811
3841,566,735,462,471,-3088
3759,587,852,419,443,-2384
3652,628,890,371,391,-1770
3574,665,919,358,248,-1242
3497,681,942,326,176,-794
3398,696,955,256,202,-415
3292,719,1006,163,214,-70
3187,700,1071,43,258,252
3070,663,1084,-117,314,560
2977,590,1081,-271,294,868
2888,532,1062,-411,213,1180
2800,454,980,-559,132,1503
2706,368,841,-676,39,1838
2625,258,683,-730,-68,2168
2523,163,544,-733,-152,2486
2450,75,484,-699,-190,2765
2394,25,531,-656,-196,3008
2308,-22,579,-662,-188,3254
2219,-103,596,-715,-210,3523
2172,-203,581,-771,-229,3799
2079,-261,503,-814,-287,4094
1904,-323,448,-857,-422,4396
1725,-417,361,-901,-550,4678
1615,-498,241,-898,-693,4950
1440,-611,129,-838,-888,5225
1214,-651,137,-764,-1136,5471
983,-732,151,-726,-1248,5631
800,-840,167,-715,-1300,5707
690,-947,171,-720,-1330,5719
659,-1000,123,-749,-1334,5739
622,-1072,52,-788,-1308,5797
487,-1172,-54,-838,-1198,5878
277,-1284,-213,-872,-1172,5962
112,-1326,-355,-798,-1397,6050
-27,-1327,-357,-623,-1790,6151
-154,-1331,-255,-474,-2072,6236
-323,-1325,-174,-391,-2071,6259
-615,-1306,-101,-345,-2046,6249
-999,-1305,-34,-306,-2180,6217
-1331,-1310,19,-266,-2383,6123
-1509,-1292,59,-204,-2604,5980
-1679,-1265,97,-126,-2828,5828
-1991,-1301,161,-69,-2905,5608
-2326,-1339,224,-14,-2735,5235
-2583,-1350,276,59,-2503,4739
-2826,-1358,328,99,-2217,4211
-3045,-1353,378,110,-1866,3631
-3242,-1354,431,74,-1481,2999
-3437,-1361,439,1,-1037,2356
-3607,-1381,442,-71,-654,1711
-3656,-1403,486,-129,-406,1074
-3612,-1413,500,-204,-212,472
-3566,-1429,436,-294,-41,-75
-3424,-1461,388,-337,5,-560
-3098,-1432,419,-341,-71,-980
-2819,-1424,466,-392,-126,-1307
-2649,-1454,431,-490,-21,-1590
-2513,-1481,384,-570,153,-1873
-2402,-1490,358,-619,345,-2172
-2307,-1480,332,-663,479,-2475
-2202,-1450,314,-706,551,-2769
-2055,-1448,296,-757,681,-3080
-1920,-1451,252,-824,935,-3395
-1787,-1443,141,-888,1123,-3704
-1613,-1438,33,-900,1174,-3982
-1411,-1403,-50,-867,1188,-4232
-1183,-1351,-83,-817,1181,-4461
-982,-1305,-72,-782,1232,-4681
-848,-1272,-114,-783,1341,-4898
-788,-1243,-177,-774,1430,-5125
-696,-1179,-227,-743,1490,-5398
-539,-1098,-263,-697,1538,-5693
-318,-1007,-255,-623,1613,-6001
-90,-890,-172,-555,1814,-6329
179,-755,-111,-534,2168,-6665
490,-631,-132,-523,2598,-6979
704,-555,-124,-481,3108,-7265
846,-467,-31,-391,3643,-7536
977,-310,76,-276,4043,-7769
1130,-158,179,-162,4148,-7913
1338,-43,333,-67,4138,-7981
1554,100,489,4,4117,-7983
1763,252,617,45,3858,-7877
1999,278,725,60,3403,-7691
2389,531,788,80,2896,-7441
2843,707,783,147,2321,-7023
3342,815,810,218,1713,-6410
3846,928,915,274,1190,-5575
4186,994,1032,294,768,-4518
4306,960,1071,292,357,-3335
4260,942,1098,300,-111,-2183
4063,951,1097,304,-549,-1178
3770,986,1116,274,-826,-412
3550,1032,1157,175,-831,86
3384,1021,1170,1,-590,406
3210,973,1106,-232,-231,631
3130,946,969,-458,104,830
3115,825,831,-588,228,1077
3157,737,736,-654,142,1397
3281,684,658,-690,60,1798
3366,615,596,-696,23,2305
3254,566,535,-718,-53,2900
2982,486,414,-755,-194,3524
2669,373,278,-718,-424,4079
2399,247,209,-566,-803,4528
2237,149,240,-372,-1204,4878
2107,94,318,-239,-1429,5161
1903,27,359,-213,-1497,5407
1645,-89,341,-256,-1450,5591
1421,-241,281,-310,-1416,5703
1331,-384,193,-342,-1481,5799
1248,-511,91,-348,-1596,5945
1189,-611,-71,-337,-1739,6151
1096,-702,-241,-263,-1911,6407
945,-775,-288,-125,-2107,6664
735,-844,-236,41,-2313,6885
526,-890,-152,198,-2569,7064
320,-908,-66,349,-2860,7195
77,-930,5,471,-3114,7297
-142,-960,72,589,-3366,7358
-378,-980,157,715,-3622,7373
-638,-1010,267,800,-3764,7320
-860,-1013,376,856,-3765,7166
-1048,-1014,488,858,-3642,6945
-1374,-1057,491,776,-3320,6682
-1773,-1129,430,695,-2929,6337
-2070,-1193,343,690,-2705,5938
-2255,-1219,303,771,-2673,5529
-2420,-1229,367,903,-2646,5110
-2648,-1194,566,1028,-2430,4642
-2979,-1162,835,1043,-1986,4083
-3336,-1167,1068,921,-1375,3404
-3626,-1217,1241,693,-772,2655
-3789,-1241,1286,405,-289,1888
-3796,-1251,1209,104,81,1159
-3691,-1260,1075,-153,359,540
-3559,-1305,918,-342,511,63
-3405,-1357,816,-448,550,-315
-3195,-1392,770,-496,504,-642
-3019,-1433,761,-553,470,-919
-2922,-1475,714,-641,524,-1201
-2842,-1509,648,-719,587,-1487
-2716,-1524,589,-771,584,-1772
-2538,-1536,527,-815,579,-2054
-2383,-1489,432,-877,606,-2310
-2271,-1499,325,-921,662,-2534
-2130,-1471,279,-925,702,-2766
-2028,-1456,269,-925,786,-2999
-1926,-1459,260,-981,912,-3243
-1738,-1432,232,-1047,1042,-3528
-1555,-1403,157,-1115,1155,-3776
-1408,-1416,75,-1172,1272,-3984
-1268,-1420,-24,-1178,1347,-4198
-1122,-1390,-70,-1149,1357,-4423
-960,-1351,-124,-1129,1457,-4662
-811,-1329,-236,-1103,1566,-4889
-679,-1285,-313,-1038,1588,-5110
-488,-1198,-324,-934,1564,-5348
-292,-1097,-317,-846,1556,-5577
-91,-997,-317,-795,1570,-5771
112,-938,-370,-749,1655,-5947
309,-879,-388,-666,1799,-6129
488,-798,-334,-566,1927,-6290
637,-699,-225,-493,2080,-6421
754,-608,-141,-476,2284,-6560
902,-510,-110,-478,2425,-6687
1066,-420,-89,-456,2472,-6772
1245,-290,9,-405,2465,-6832
1448,-153,129,-378,2469,-6871
1715,-19,233,-402,2450,-6864
1981,80,305,-474,2348,-6762
2257,187,301,-586,2136,-6566
2624,342,314,-645,1890,-6265
2977,343,293,-678,1632,-5798
3279,344,200,-725,1318,-5182
3496,306,47,-714,1120,-4479
3602,248,-93,-593,981,-3748
3671,234,-172,-355,717,-3023
3718,269,-168,-53,356,-2311
3731,320,-110,246,9,-1596
3661,383,9,512,-282,-938
3547,477,207,717,-509,-405
3440,568,421,797,-616,-4
3342,629,595,739,-554,295
3231,663,712,590,-379,528
3144,627,744,407,-208,732
3087,557,690,221,-65,924
3051,495,592,53,71,1136
2975,402,476,-67,162,1399
2872,294,341,-129,134,1698
2790,208,249,-115,-56,2020
2702,131,199,-59,-292,2344
2652,87,176,0,-474,2643
2591,21,183,41,-537,2903
2432,-70,188,36,-527,3119
2260,-165,171,7,-558,3294
2170,-294,125,-26,-568,3436
2126,-410,69,-55,-561,3583
2034,-497,-28,-64,-586,3756
1910,-598,-134,-45,-581,3910
1782,-694,-199,9,-582,4053
1624,-780,-228,77,-634,4194
1522,-852,-230,160,-764,4328
1442,-916,-191,259,-902,4456
1408,-951,-146,337,-1043,4593
1305,-984,-67,398,-1182,4749
1048,-1031,6,404,-1258,4883
741,-1114,26,364,-1287,4935
515,-1206,27,334,-1396,4905
376,-1299,19,321,-1572,4846
307,-1373,-15,302,-1744,4794
230,-1455,-104,284,-1846,4761
161,-1549,-192,298,-1874,4723
121,-1603,-217,350,-1875,4690
35,-1618,-218,410,-1887,4687
-124,-1654,-188,453,-1911,4708
-348,-1687,-148,474,-1859,4689
-618,-1701,-83,490,-1748,4590
-926,-1742,-2,472,-1573,4416
-1203,-1803,33,420,-1379,4163
-1402,-1842,48,380,-1262,3865
-1553,-1863,48,345,-1211,3579
-1668,-1899,54,300,-1175,3321
-1752,-1915,49,269,-1172,3097
-1866,-1905,32,247,-1191,2902
-2005,-1907,66,221,-1211,2697
-2131,-1883,96,180,-1161,2462
-2320,-1869,87,119,-1038,2198
-2568,-1890,67,59,-836,1855
-2850,-1938,67,26,-529,1387
-3059,-1971,100,18,-191,794
-3090,-1956,139,-4,60,140
-2941,-1925,158,-55,147,-464
-2638,-1879,132,-107,124,-973
-2262,-1836,113,-154,113,-1386
-1941,-1815,110,-190,194,-1716
-1656,-1774,120,-228,318,-1978
-1437,-1731,105,-286,443,-2161
-1326,-1748,55,-340,547,-2298
-1247,-1752,21,-356,632,-2448
-1172,-1711,66,-350,701,-2630
-1095,-1684,114,-373,806,-2836
-1057,-1684,123,-444,1022,-3069
-1000,-1667,109,-531,1224,-3351
-901,-1646,61,-601,1353,-3646
-784,-1616,-34,-648,1547,-3942
-646,-1581,-113,-653,1708,-4239
-444,-1511,-190,-636,1815,-4520
-220,-1435,-267,-605,1966,-4771
-13,-1379,-301,-564,2178,-4994
158,-1315,-323,-521,2359,-5189
266,-1244,-323,-462,2560,-5401
355,-1125,-295,-383,2812,-5672
432,-1028,-184,-287,3076,-5977
557,-919,-70,-210,3314,-6295
812,-734,37,-120,3279,-6548
1196,-572,190,-23,3083,-6678
1694,-454,329,41,2993,-6689
2310,-309,420,47,2867,-6527
2890,-170,482,-11,2651,-6106
3153,-132,502,-128,2552,-5503
3077,-192,449,-250,2674,-4918
2930,-270,346,-257,2847,-4476
2896,-249,304,-120,2773,-4084
2898,-138,353,78,2365,-3617
2921,-73,481,251,1832,-3104
3026,17,656,379,1323,-2619
3212,126,845,455,893,-2141
3382,220,995,453,577,-1621
3534,305,1079,376,389,-1061
3573,384,1153,254,283,-487
3459,388,1132,86,261,57
3295,369,1041,-72,253,568
3131,359,975,-176,278,1012
2937,335,971,-242,258,1381
2716,298,968,-324,140,1700
2552,203,903,-425,52,1967
2425,103,851,-480,-73,2195
2360,36,852,-520,-269,2402
2397,-21,794,-593,-444,2627
2467,-81,675,-661,-526,2903
2453,-159,529,-702,-571,3238
2434,-229,394,-706,-635,3612
2411,-307,288,-668,-654,4013
2177,-360,211,-615,-722,4434
1832,-414,177,-540,-916,4807
1538,-500,188,-432,-1140,5086
1347,-562,269,-319,-1356,5267
1239,-593,342,-258,-1533,5417
1078,-649,356,-277,-1647,5566
875,-730,332,-326,-1694,5692
705,-805,262,-350,-1738,5781
563,-855,206,-325,-1856,5868
392,-929,207,-288,-1968,5952
284,-984,215,-259,-2023,6009
193,-1023,181,-245,-2035,6067
-3,-1070,125,-251,-2086,6158
-282,-1133,46,-236,-2173,6243
-532,-1207,-1,-153,-2308,6259
-704,-1236,-4,-44,-2437,6198
-863,-1280,-6,48,-2502,6105
-1060,-1303,47,138,-2462,5994
-1344,-1303,101,200,-2264,5845
-1584,-1293,129,229,-2093,5652
-1796,-1290,138,254,-2046,5461
-2120,-1340,158,309,-2065,5296
-2438,-1379,216,414,-2095,5058
-2648,-1330,372,555,-2204,4735
-2836,-1252,634,632,-2289,4397
-3136,-1224,864,561,-2119,4003
-3489,-1260,965,382,-1726,3481
-3781,-1301,995,174,-1282,2831
-3950,-1345,968,-37,-886,2124
-3958,-1382,872,-228,-562,1408
-3857,-1412,756,-376,-286,723
-3670,-1424,710,-455,-38,94
-3434,-1445,664,-506,194,-454
-3184,-1474,647,-535,328,-901
-2999,-1469,728,-539,319,-1256
-2856,-1427,735,-617,350,-1584
-2773,-1429,662,-724,416,-1891
-2737,-1402,628,-801,467,-2204
-2662,-1387,602,-879,637,-2573
-2580,-1403,475,-992,877,-2958
-2481,-1419,318,-1071,1076,-3367
-2327,-1394,247,-1074,1204,-3789
-2120,-1343,209,-1061,1287,-4189
-1844,-1283,127,-1080,1318,-4538
-1536,-1244,-3,-1098,1256,-4805
-1264,-1212,-106,-1070,1150,-5014
-1036,-1172,-170,-1017,1145,-5220
-815,-1116,-191,-974,1234,-5447
-595,-1068,-187,-926,1334,-5662
-391,-1011,-175,-895,1428,-5856
-214,-956,-172,-887,1593,-6050
-30,-893,-183,-869,1816,-6259
175,-828,-166,-835,1979,-6444
353,-773,-153,-803,2139,-6595
541,-723,-160,-758,2268,-6706
742,-664,-174,-683,2268,-6733
