ax,ay,az,gx,gy,gz
-1794,-1513,-2,-904,-1564,-3097
-1525,-1406,-91,-932,-1714,-3452
-1125,-1302,-185,-949,-1819,-3869
-684,-1200,-331,-942,-1822,-4341
-169,-1054,-400,-900,-1703,-4751
215,-1036,-449,-876,-1516,-4988
568,-1006,-575,-856,-1386,-5117
986,-983,-674,-792,-1275,-5128
1439,-979,-716,-684,-1182,-4971
1880,-964,-727,-582,-1192,-4616
2312,-967,-744,-507,-1244,-4103
2753,-1039,-769,-432,-1224,-3520
3093,-1161,-792,-338,-1170,-2875
3207,-1216,-818,-161,-1259,-2140
3012,-1188,-790,124,-1539,-1343
2626,-1005,-569,395,-1919,-628
2389,-760,-250,457,-2155,-220
2472,-602,-25,265,-2104,-185
2711,-510,49,-51,-1809,-340
2926,-537,-21,-302,-1414,-464
3222,-619,-200,-480,-1009,-524
3739,-736,-407,-676,-506,-520
4235,-956,-541,-813,-2,-434
4511,-1153,-580,-842,290,-235
4527,-1294,-595,-720,480,100
4306,-1409,-505,-511,517,563
4034,-1420,-389,-327,392,1037
3762,-1426,-381,-245,313,1454
3471,-1453,-439,-241,331,1837
3157,-1531,-542,-274,429,2132
2799,-1666,-704,-265,583,2302
2457,-1738,-876,-191,778,2360
2184,-1788,-1052,-91,1014,2363
2011,-1804,-1180,40,1223,2372
1945,-1777,-1203,217,1440,2419
1853,-1744,-1161,385,1668,2542
1701,-1673,-1055,574,1763,2749
1482,-1596,-856,782,1721,3003
1219,-1489,-673,934,1579,3239
895,-1401,-550,1022,1391,3467
511,-1389,-527,1095,1173,3680
108,-1371,-563,1189,939,3848
-231,-1288,-538,1317,711,3926
-495,-1228,-478,1431,578,3885
-596,-1158,-421,1503,571,3753
-575,-1119,-299,1553,653,3593
-572,-1076,-137,1564,775,3458
-801,-1052,24,1497,925,3329
-1283,-1058,157,1326,1164,3092
-1874,-1119,263,1087,1463,2681
-2576,-1280,401,820,1850,2059
-3172,-1486,493,500,2300,1273
-3413,-1680,487,224,2498,504
-3402,-1847,422,103,2249,-31
-3311,-1940,451,120,1730,-253
-3217,-1969,579,189,1165,-277
-3147,-1900,736,234,537,-265
-2995,-1788,880,220,-74,-361
-2800,-1667,1014,145,-511,-559
-2667,-1606,1063,-6,-797,-810
-2558,-1566,987,-207,-997,-1152
-2349,-1541,834,-411,-1125,-1561
-2066,-1525,670,-588,-1215,-1930
-1816,-1525,524,-762,-1244,-2243
-1556,-1556,332,-915,-1207,-2561
-1256,-1591,139,-988,-1192,-2861
-941,-1605,16,-996,-1233,-3076
-627,-1622,-95,-949,-1290,-3193
-340,-1605,-176,-878,-1381,-3174
-146,-1564,-225,-814,-1515,-3043
-31,-1572,-284,-777,-1651,-2947
147,-1531,-367,-764,-1773,-2950
340,-1490,-444,-723,-1853,-2974
601,-1444,-550,-717,-1846,-3069
852,-1443,-650,-712,-1742,-3161
1059,-1468,-715,-667,-1663,-3167
1182,-1459,-767,-570,-1635,-3088
1373,-1322,-700,-392,-1640,-2977
1711,-1156,-540,-244,-1565,-2876
1995,-1092,-470,-297,-1373,-2740
2249,-1093,-485,-438,-1183,-2576
2570,-1182,-606,-560,-981,-2454
2942,-1283,-774,-593,-785,-2295
3195,-1361,-879,-480,-671,-1959
3230,-1432,-941,-262,-702,-1471
3179,-1403,-892,14,-865,-977
3157,-1255,-659,268,-1001,-590
3178,-1083,-405,358,-976,-351
3236,-1021,-273,272,-773,-236
3279,-1026,-235,122,-459,-196
3301,-1067,-268,-32,-75,-193
3321,-1129,-310,-169,274,-171
3361,-1204,-375,-285,545,-88
3405,-1261,-446,-365,756,72
3401,-1319,-482,-419,947,302
3288,-1423,-554,-452,1084,576
3085,-1531,-667,-404,1149,851
2924,-1582,-727,-289,1152,1123
2809,-1566,-708,-162,1127,1408
2636,-1536,-685,-70,1144,1728
2428,-1534,-654,2,1193,2021
2212,-1521,-649,68,1257,2241
1996,-1510,-639,149,1314,2416
1783,-1478,-585,233,1362,2561
1569,-1458,-518,312,1397,2676
1369,-1422,-487,381,1417,2771
1171,-1406,-480,437,1411,2872
991,-1389,-469,504,1362,2989
806,-1353,-389,574,1289,3108
626,-1328,-303,610,1233,3203
404,-1332,-305,602,1248,3226
100,-1419,-370,582,1313,3174
-152,-1476,-453,574,1359,3080
-305,-1493,-449,636,1377,2979
-413,-1459,-361,738,1349,2915
-539,-1394,-217,849,1310,2893
-711,-1317,-31,949,1242,2904
-943,-1262,141,973,1122,2922
-1282,-1228,276,896,968,2918
-1786,-1251,446,759,865,2819
-2400,-1326,587,558,902,2498
-2953,-1446,636,299,1050,1926
-3275,-1599,625,69,1160,1223
-3315,-1714,570,-58,1137,574
-3118,-1793,521,-112,918,133
-2835,-1852,518,-120,533,-65
-2648,-1833,624,-142,64,-152
-2550,-1714,737,-226,-374,-234
-2488,-1692,728,-383,-686,-323
-2426,-1758,572,-547,-982,-421
-2341,-1786,421,-645,-1292,-518
-2252,-1786,277,-719,-1554,-619
-2148,-1800,137,-800,-1811,-799
-1966,-1816,20,-877,-1942,-1138
-1746,-1814,-75,-918,-1908,-1526
-1522,-1812,-167,-977,-1779,-1894
-1307,-1846,-318,-1090,-1594,-2261
-1124,-1917,-545,-1172,-1407,-2609
-1011,-2016,-784,-1173,-1251,-2894
-899,-2065,-980,-1078,-1232,-3111
-651,-2022,-1057,-855,-1364,-3269
-311,-1938,-1012,-591,-1548,-3367
7,-1792,-945,-388,-1736,-3401
313,-1634,-906,-266,-1831,-3413
643,-1549,-878,-207,-1778,-3418
1003,-1461,-893,-175,-1657,-3384
1325,-1424,-930,-134,-1518,-3292
1561,-1430,-954,-110,-1408,-3139
1672,-1416,-986,-27,-1341,-2977
1828,-1320,-929,147,-1332,-2866
2150,-1171,-758,286,-1283,-2804
2556,-1062,-624,303,-1146,-2766
3003,-1014,-568,271,-916,-2715
3356,-969,-530,246,-628,-2570
3580,-927,-455,255,-400,-2288
3712,-852,-247,297,-271,-1913
3771,-757,-25,261,-181,-1541
3867,-730,77,132,-43,-1212
3942,-722,128,39,74,-894
3923,-719,208,-6,141,-573
3810,-727,216,-63,197,-228
3609,-743,151,-151,222,182
3340,-827,87,-262,239,596
3089,-922,22,-376,300,896
2908,-1005,-43,-462,425,1052
2777,-1032,-81,-530,589,1134
2641,-1074,-102,-641,821,1182
2489,-1158,-184,-787,1098,1186
2343,-1273,-320,-897,1343,1147
2233,-1398,-484,-956,1558,1102
2177,-1493,-671,-951,1717,1120
2116,-1550,-795,-855,1808,1256
1987,-1574,-835,-716,1834,1475
1855,-1572,-777,-566,1833,1682
1721,-1491,-610,-431,1800,1893
1555,-1440,-490,-377,1749,2102
1318,-1480,-506,-398,1717,2277
1054,-1563,-582,-413,1692,2398
829,-1609,-636,-394,1666,2478
643,-1671,-735,-377,1685,2524
432,-1763,-871,-332,1673,2562
243,-1867,-1008,-212,1629,2611
168,-1914,-1113,-4,1556,2709
130,-1895,-1018,295,1416,2888
74,-1750,-650,603,1165,3128
-60,-1564,-258,776,942,3339
-389,-1534,-75,739,854,3476
-799,-1635,-30,607,762,3533
-1239,-1760,-117,474,562,3528
-1641,-1842,-254,399,335,3452
-1969,-1927,-319,470,170,3286
-2241,-1969,-251,611,86,3007
-2417,-1947,-74,738,18,2631
-2514,-1860,177,805,-45,2205
-2621,-1775,482,768,-63,1764
-2769,-1735,659,602,-82,1311
-2904,-1735,733,388,-149,841
-3003,-1759,742,163,-240,370
-3003,-1778,695,-37,-377,-85
-2846,-1753,641,-167,-569,-494
-2583,-1720,583,-287,-737,-821
-2399,-1736,488,-417,-921,-1070
-2243,-1709,370,-525,-1145,-1283
-2091,-1723,208,-601,-1338,-1474
-1940,-1697,86,-622,-1554,-1629
-1818,-1644,43,-642,-1751,-1755
-1736,-1604,-1,-672,-1913,-1913
-1673,-1545,-50,-714,-2039,-2152
-1552,-1472,-117,-780,-2081,-2500
-1357,-1377,-212,-860,-2058,-2920
-1083,-1317,-347,-945,-1931,-3412
-694,-1244,-526,-1000,-1711,-3930
-277,-1224,-689,-979,-1394,-4399
128,-1257,-826,-922,-1119,-4720
473,-1277,-990,-833,-985,-4842
843,-1264,-1162,-675,-959,-4745
1195,-1252,-1242,-463,-1028,-4485
1527,-1242,-1223,-256,-1123,-4163
1892,-1239,-1206,-120,-1192,-3878
2285,-1240,-1216,0,-1259,-3610
2655,-1256,-1189,180,-1363,-3238
2855,-1285,-1134,411,-1558,-2654
2948,-1201,-992,661,-1855,-1978
2937,-1062,-781,842,-2072,-1379
2850,-910,-598,891,-2121,-976
2802,-765,-398,834,-1975,-822
2945,-631,-237,669,-1623,-880
3147,-530,-157,442,-1177,-1014
3266,-542,-107,225,-746,-1110
3477,-551,-70,41,-358,-1174
3731,-563,-46,-113,-10,-1114
3872,-618,-18,-228,241,-901
3937,-667,42,-324,412,-577
3920,-734,48,-418,497,-200
3819,-801,20,-493,426,193
3641,-832,-42,-585,366,550
3448,-915,-177,-731,450,842
3274,-1043,-378,-865,620,1050
3091,-1176,-601,-922,795,1179
3007,-1303,-775,-932,1043,1237
2961,-1428,-933,-913,1326,1285
2871,-1555,-1044,-839,1593,1367
2726,-1634,-1089,-707,1781,1528
2587,-1659,-1080,-547,1860,1785
2352,-1655,-1078,-379,1835,2148
2048,-1623,-1015,-183,1716,2556
1771,-1558,-903,-6,1565,2891
1526,-1448,-797,146,1441,3134
1281,-1378,-666,263,1335,3301
1109,-1295,-559,314,1297,3382
975,-1272,-505,314,1368,3384
837,-1287,-494,306,1446,3359
706,-1295,-538,320,1512,3354
491,-1363,-668,340,1595,3372
234,-1416,-755,407,1589,3427
-58,-1475,-776,517,1502,3514
-357,-1498,-769,625,1321,3608
-593,-1544,-715,744,1150,3656
-778,-1588,-667,836,962,3671
-880,-1560,-609,948,727,3697
-993,-1537,-497,1078,538,3747
-1091,-1466,-310,1191,357,3812
-1263,-1383,-72,1280,146,3879
-1530,-1306,158,1318,-109,3908
-1819,-1229,416,1304,-375,3842
-2197,-1177,658,1231,-549,3654
-2681,-1187,839,1077,-573,3270
-3097,-1234,953,866,-484,2649
-3318,-1301,954,613,-306,1888
-3374,-1374,873,363,-95,1132
-3330,-1434,857,143,54,481
-3175,-1476,829,-60,87,-42
-2972,-1523,808,-201,-66,-409
-2836,-1521,840,-283,-334,-645
-2724,-1471,830,-358,-636,-821
-2598,-1443,761,-434,-986,-960
-2479,-1426,696,-515,-1309,-1075
-2415,-1407,649,-603,-1510,-1234
-2423,-1365,625,-720,-1584,-1504
-2419,-1318,569,-872,-1546,-1895
-2284,-1278,504,-1043,-1470,-2385
-1968,-1229,417,-1208,-1402,-2901
-1611,-1207,273,-1370,-1331,-3387
-1267,-1199,34,-1515,-1261,-3818
-922,-1230,-234,-1602,-1147,-4212
-629,-1361,-528,-1559,-976,-4587
-293,-1399,-783,-1405,-941,-4870
32,-1341,-891,-1202,-1006,-4959
181,-1301,-872,-992,-1108,-4898
279,-1256,-796,-819,-1231,-4834
430,-1189,-759,-675,-1358,-4848
676,-1137,-757,-563,-1524,-4917
1043,-1109,-891,-488,-1666,-4987
1553,-1071,-1062,-388,-1804,-4956
2195,-1020,-1185,-238,-1844,-4755
2864,-1044,-1204,-84,-1674,-4360
3336,-1066,-1225,5,-1375,-3783
3692,-1144,-1291,49,-1144,-3119
3884,-1176,-1301,206,-978,-2397
3860,-1325,-1292,444,-915,-1615
3910,-1168,-1109,793,-1109,-839
4019,-891,-738,1044,-1286,-160
4009,-674,-423,1022,-1258,352
3863,-478,-128,900,-1022,651
3691,-374,110,708,-587,723
3692,-372,267,386,-56,567
3760,-462,290,69,411,381
3790,-561,239,-184,731,317
3757,-645,144,-388,971,392
3617,-773,-36,-585,1185,592
3366,-955,-290,-748,1297,905
3067,-1154,-593,-777,1300,1260
2820,-1281,-724,-672,1263,1575
2638,-1331,-730,-548,1248,1838
2451,-1370,-718,-469,1286,2057
2254,-1420,-756,-424,1382,2241
2016,-1479,-830,-375,1501,2395
1763,-1509,-856,-282,1577,2528
1568,-1468,-777,-159,1604,2645
1426,-1396,-659,-67,1626,2737
1306,-1331,-601,-16,1667,2816
1161,-1297,-615,49,1737,2891
959,-1331,-599,129,1824,2961
720,-1353,-594,189,1837,3031
461,-1365,-593,249,1796,3103
202,-1427,-568,285,1803,3161
-25,-1524,-605,276,1836,3192
-273,-1621,-642,286,1791,3230
-461,-1616,-541,368,1673,3275
-613,-1570,-408,471,1634,3283
-846,-1602,-336,507,1619,3256
-1059,-1608,-287,516,1420,3223
-1203,-1541,-193,603,1177,3198
-1426,-1537,-44,703,975,3171
-1846,-1549,108,699,789,3058
-2460,-1563,222,602,830,2692
-3045,-1647,323,434,1121,2018
-3431,-1789,391,226,1476,1119
-3483,-1882,403,40,1711,224
-3269,-1972,375,-110,1732,-432
-2907,-2049,300,-198,1473,-742
-2627,-2063,318,-206,989,-765
-2512,-1998,401,-192,477,-715
-2393,-1926,461,-201,14,-724
-2227,-1872,453,-247,-407,-802
-2068,-1819,413,-302,-710,-951
-1946,-1805,297,-386,-853,-1177
-1860,-1861,136,-470,-870,-1472
-1704,-1908,-6,-511,-814,-1812
-1533,-1928,-132,-504,-806,-2089
-1338,-1937,-222,-455,-910,-2241
-1209,-1899,-223,-375,-1086,-2294
-1118,-1785,-133,-310,-1224,-2329
-968,-1655,-31,-316,-1301,-2454
-757,-1615,-40,-392,-1287,-2684
-474,-1633,-170,-491,-1219,-2988
-139,-1628,-333,-553,-1141,-3265
196,-1694,-580,-561,-1017,-3451
593,-1765,-844,-480,-927,-3542
985,-1819,-961,-290,-912,-3431
1124,-1873,-1040,-64,-980,-3091
1078,-1859,-1030,188,-1203,-2662
1064,-1787,-924,462,-1491,-2290
1057,-1636,-758,692,-1800,-2015
1043,-1428,-556,836,-2072,-1870
1182,-1231,-331,852,-2192,-1895
1463,-1053,-222,750,-2100,-2039
1876,-895,-131,605,-1831,-2230
2349,-866,-118,410,-1331,-2464
2805,-858,-188,171,-826,-2636
3148,-878,-271,19,-525,-2572
3501,-901,-339,8,-367,-2345
3911,-843,-299,79,-239,-1984
4202,-803,-187,167,-158,-1474
4296,-761,-55,220,-158,-893
4208,-743,89,223,-163,-329
4116,-713,201,173,-152,133
4033,-717,258,48,-64,499
3843,-800,197,-128,85,816
3644,-922,33,-299,276,1104
3434,-1054,-127,-410,451,1375
3204,-1201,-302,-452,609,1620
2983,-1310,-467,-437,806,1826
2759,-1384,-600,-461,996,1950
2535,-1457,-707,-479,1235,2012
2313,-1548,-780,-422,1424,2156
2169,-1614,-827,-328,1526,2320
1997,-1628,-776,-186,1592,2454
1800,-1572,-694,-33,1621,2591
1591,-1455,-560,140,1533,2804
1444,-1276,-332,289,1382,3045
1276,-1129,-76,334,1300,3242
1031,-1025,75,262,1283,3368
678,-1041,142,109,1315,3403
200,-1178,50,-135,1357,3317
-257,-1404,-343,-390,1475,3110
-551,-1685,-912,-457,1668,2893
-659,-1944,-1318,-311,1752,2802
-668,-2075,-1419,20,1660,2801
-687,-1976,-1175,428,1470,2890
-842,-1708,-771,777,1262,3010
-1140,-1418,-379,955,1102,3033
-1573,-1305,25,1014,1097,2933
-2055,-1154,432,890,1016,2741
-2600,-1149,643,414,1003,2554
-3034,-1438,480,-40,1105,2206
-3184,-1672,205,-252,984,1722
-3206,-1795,93,-291,800,1273
-3144,-1818,137,-262,711,787
-3056,-1781,211,-268,747,255
-3011,-1780,271,-319,822,-257
-2863,-1764,308,-346,744,-667
-2624,-1725,418,-329,482,-919
-2392,-1653,492,-353,125,-1030
-2196,-1625,488,-421,-294,-1070
-2046,-1651,348,-529,-666,-1116
-1974,-1710,162,-625,-920,-1201
-2071,-1761,63,-682,-1073,-1381
-2155,-1795,-84,-745,-1054,-1735
-2047,-1845,-255,-754,-989,-2195
-1797,-1840,-332,-700,-1011,-2605
-1516,-1776,-369,-643,-1054,-2947
-1203,-1752,-503,-610,-1165,-3201
-899,-1806,-699,-591,-1394,-3351
-579,-1769,-845,-481,-1662,-3412
-229,-1694,-832,-294,-1864,-3414
-47,-1649,-846,-180,-1955,-3385
129,-1583,-917,-105,-2058,-3370
291,-1531,-898,11,-2174,-3354
366,-1464,-917,112,-2216,-3386
659,-1311,-904,219,-2249,-3518
1148,-1178,-822,290,-2238,-3674
1796,-1022,-690,277,-2110,-3739
2303,-1048,-718,181,-1877,-3608
2677,-1145,-875,74,-1730,-3255
2934,-1262,-1013,104,-1656,-2795
3034,-1341,-1070,242,-1649,-2292
3050,-1320,-971,427,-1676,-1799
3076,-1217,-787,578,-1699,-1386
3177,-1087,-563,653,-1654,-1070
3271,-973,-358,635,-1483,-848
3352,-905,-188,556,-1212,-684
3442,-805,-25,438,-916,-580
3558,-752,89,237,-534,-547
3716,-795,77,-5,-119,-523
3887,-909,-56,-213,241,-440
4011,-1088,-246,-337,507,-222
4036,-1259,-454,-358,621,168
3856,-1312,-557,-275,564,718
3506,-1328,-572,-182,482,1305
3180,-1349,-584,-151,488,1779
2840,-1370,-587,-125,504,2111
2556,-1371,-550,-114,614,2271
2333,-1393,-527,-164,893,2258
2144,-1468,-570,-255,1270,2125
1992,-1549,-655,-323,1624,1975
1849,-1653,-732,-343,1899,1891
1722,-1711,-788,-311,2019,1919
1603,-1714,-828,-217,1995,2080
1400,-1695,-875,-75,1861,2346
1158,-1609,-858,132,1634,2656
943,-1472,-713,355,1408,2900
739,-1290,-455,519,1255,3050
506,-1176,-180,583,1254,3086
143,-1233,-71,468,1417,2977
-186,-1353,-168,229,1663,2754
-487,-1548,-426,23,1837,2541
-681,-1682,-585,-28,1807,2417
-839,-1750,-582,76,1649,2360
-926,-1745,-492,223,1462,2286
-965,-1762,-368,347,1365,2180
-972,-1722,-274,384,1248,2090
-1003,-1646,-132,425,1084,2056
-1210,-1675,16,414,997,2020
-1457,-1698,53,305,885,1915
-1698,-1782,30,200,710,1769
-1885,-1864,-24,126,507,1585
-2046,-1915,-72,80,340,1376
-2228,-1984,-118,37,322,1107
-2363,-2058,-174,-11,393,751
-2405,-2087,-175,-28,413,365
-2434,-2102,-120,-29,394,5
-2461,-2056,-55,-34,296,-311
-2392,-1995,23,-35,83,-568
-2216,-1937,79,-26,-199,-754
-2040,-1830,138,-18,-506,-867
-1973,-1748,214,-48,-736,-984
-2007,-1738,186,-137,-861,-1197
-2017,-1759,55,-224,-957,-1493
-2011,-1768,-23,-268,-1060,-1820
-1910,-1732,-84,-308,-1074,-2204
-1588,-1652,-93,-322,-1066,-2620
-1199,-1596,-94,-355,-1079,-2956
-803,-1564,-189,-418,-1106,-3168
-424,-1566,-342,-441,-1163,-3263
-41,-1598,-510,-407,-1314,-3248
346,-1523,-563,-315,-1486,-3107
567,-1536,-581,-258,-1549,-2873
677,-1565,-689,-250,-1651,-2653
809,-1583,-723,-188,-1730,-2540
953,-1585,-749,-111,-1703,-2502
1202,-1526,-772,-29,-1702,-2442
1399,-1525,-818,65,-1697,-2301
1560,-1483,-818,142,-1703,-2133
1773,-1359,-709,245,-1682,-1998
2107,-1208,-481,320,-1580,-1895
2438,-1128,-314,270,-1340,-1825
2739,-1135,-254,149,-1018,-1775
2963,-1179,-213,65,-711,-1661
3024,-1187,-100,95,-513,-1412
2979,-1125,83,145,-474,-1090
2979,-1037,282,92,-518,-843
3037,-1049,363,-79,-469,-697
3163,-1122,263,-334,-331,-644
3297,-1320,25,-570,-175,-624
3547,-1473,-251,-658,-88,-545
3849,-1576,-540,-680,112,-363
4008,-1774,-796,-651,384,-80
4040,-1880,-947,-519,590,283
3858,-1879,-913,-314,751,699
3467,-1815,-724,-123,880,1102
3141,-1748,-599,-49,972,1454
2801,-1749,-602,-47,1017,1755
2433,-1776,-657,-31,1063,1974
2103,-1801,-716,-2,1178,2083
1789,-1786,-763,64,1318,2132
1530,-1743,-747,150,1422,2161
1348,-1688,-677,223,1535,2152
1147,-1622,-630,270,1655,2111
960,-1538,-551,325,1755,2035
854,-1484,-395,360,1876,1934
786,-1459,-309,323,1960,1871
691,-1436,-279,284,1893,1907
544,-1400,-198,258,1765,2025
257,-1429,-150,181,1665,2160
-79,-1511,-182,65,1557,2244
-388,-1595,-250,1,1372,2260
-559,-1666,-331,10,1196,2217
-692,-1802,-502,42,1121,2141
-700,-1893,-654,117,1082,2060
-692,-1888,-596,303,1010,2027
-863,-1787,-349,475,957,1986
-1189,-1727,-80,504,1051,1825
-1521,-1719,112,424,1125,1559
-1699,-1684,271,311,1019,1281
-1771,-1708,328,152,845,1045
-1844,-1788,275,15,629,860
-1904,-1861,136,-111,389,733
-1914,-1969,-20,-182,161,608
-1924,-2027,-140,-168,-97,493
-1948,-2014,-139,-97,-323,374
-1974,-1944,-29,-25,-456,185
-1994,-1881,125,-11,-517,-109
-1976,-1805,200,-75,-551,-436
-1905,-1751,198,-159,-671,-681
-1808,-1717,220,-210,-838,-858
-1699,-1691,230,-263,-968,-1070
-1607,-1648,215,-355,-1060,-1337
-1515,-1632,91,-478,-1096,-1634
-1444,-1684,-59,-599,-1107,-1942
-1370,-1741,-241,-685,-1104,-2293
-1128,-1748,-407,-692,-1140,-2661
-721,-1713,-498,-611,-1227,-2941
-331,-1667,-500,-515,-1325,-3082
-8,-1591,-501,-459,-1395,-3108
335,-1558,-573,-451,-1434,-3064
740,-1532,-645,-440,-1478,-2960
954,-1598,-664,-398,-1427,-2824
1029,-1679,-783,-421,-1315,-2767
1206,-1722,-915,-391,-1239,-2777
1455,-1738,-919,-207,-1260,-2669
1532,-1763,-857,-11,-1378,-2370
1458,-1714,-817,156,-1612,-2001
1501,-1520,-703,317,-1847,-1719
1727,-1342,-511,368,-1880,-1602
1992,-1297,-422,282,-1692,-1646
2271,-1225,-444,174,-1388,-1808
2590,-1152,-408,109,-1057,-1930
2964,-1123,-308,65,-768,-1940
3292,-1068,-258,20,-545,-1766
3433,-1096,-185,4,-397,-1421
3475,-1087,-41,48,-384,-1032
3487,-1035,135,36,-398,-674
3472,-1079,163,-67,-363,-389
3430,-1220,39,-181,-303,-158
3408,-1270,-49,-235,-228,51
3370,-1337,-168,-317,-52,176
3250,-1516,-408,-412,196,296
3165,-1629,-579,-421,375,405
3120,-1667,-645,-379,578,533
3043,-1706,-687,-336,798,690
2970,-1764,-772,-297,995,873
2832,-1806,-848,-223,1111,1118
2671,-1809,-860,-117,1196,1388
2498,-1770,-852,-17,1279,1599
2322,-1692,-824,90,1359,1779
2168,-1590,-764,202,1414,1983
2041,-1467,-683,291,1462,2190
1850,-1370,-591,374,1501,2402
1626,-1274,-512,442,1493,2607
1392,-1169,-372,503,1425,2794
1132,-1086,-186,514,1350,2951
831,-1059,-132,447,1305,3053
507,-1126,-211,321,1277,3082
253,-1263,-427,188,1299,3048
122,-1366,-659,151,1313,3041
22,-1429,-811,234,1278,3119
-119,-1464,-842,395,1179,3271
-289,-1351,-687,612,971,3454
-523,-1179,-371,804,803,3590
-821,-1058,8,892,768,3601
-1249,-1091,311,765,760,3451
-1706,-1255,301,470,706,3185
-2066,-1464,112,183,613,2870
-2335,-1644,-32,-3,556,2500
-2524,-1866,-202,-133,562,2109
-2538,-2064,-333,-136,526,1687
-2495,-2105,-265,-22,386,1280
-2558,-2064,-109,79,313,888
-2689,-2034,-24,118,319,467
-2830,-1980,67,166,296,31
-2956,-1918,252,180,238,-382
-3045,-1895,427,119,70,-803
-3089,-1805,524,13,-217,-1237
-3004,-1686,566,-128,-486,-1670
-2774,-1596,498,-331,-697,-2056
-2510,-1557,333,-536,-872,-2388
-2288,-1595,62,-714,-1034,-2704
-2013,-1608,-230,-798,-1259,-2998
-1722,-1599,-456,-777,-1485,-3261
-1503,-1554,-581,-721,-1590,-3580
-1166,-1442,-665,-668,-1537,-4010
-697,-1325,-748,-612,-1435,-4432
-173,-1232,-828,-539,-1328,-4687
360,-1218,-926,-452,-1279,-4748
863,-1235,-1024,-315,-1339,-4599
1378,-1218,-1037,-128,-1517,-4241
1598,-1252,-1027,49,-1720,-3724
1576,-1255,-1089,174,-1934,-3240
1699,-1214,-1039,299,-2089,-2949
1997,-1108,-918,411,-2105,-2846
2381,-964,-818,448,-1953,-2859
2799,-906,-769,412,-1615,-2856
3220,-871,-742,378,-1222,-2758
3568,-828,-648,393,-902,-2529
3895,-784,-489,416,-678,-2194
4196,-741,-322,420,-522,-1784
4465,-672,-123,424,-424,-1340
4689,-612,92,404,-301,-906
4854,-620,270,331,-115,-501
4865,-669,325,240,107,-112
4691,-735,341,164,283,287
4348,-792,338,92,355,714
3965,-859,225,-19,375,1160
3655,-960,70,-154,398,1582
3321,-1036,-45,-254,452,1907
2927,-1085,-176,-322,557,2087
2594,-1178,-354,-379,738,2152
2353,-1284,-561,-426,942,2239
2183,-1341,-681,-438,1120,2307
2036,-1435,-778,-414,1379,2306
1900,-1498,-866,-324,1605,2336
1761,-1529,-853,-166,1704,2443
1624,-1488,-775,19,1676,2629
1491,-1401,-668,182,1547,2878
1285,-1331,-568,302,1393,3172
1067,-1241,-481,380,1255,3447
796,-1225,-451,396,1183,3668
485,-1274,-477,409,1123,3824
193,-1286,-539,436,995,3952
-58,-1304,-528,499,866,4049
-294,-1296,-507,548,821,4076
-540,-1281,-489,569,809,4056
-839,-1302,-462,601,855,3970
-1060,-1292,-409,664,848,3829
-1207,-1192,-254,801,704,3712
-1624,-1149,-8,899,592,3574
-2424,-1214,195,801,769,3160
-3194,-1353,252,519,1201,2355
-3728,-1583,239,223,1560,1379
-4015,-1770,160,2,1739,456
-3950,-1921,56,-129,1690,-263
-3557,-2007,49,-141,1331,-659
-3151,-2026,102,-169,773,-774
-2915,-1951,160,-209,179,-798
-2713,-1836,216,-232,-323,-851
-2556,-1762,218,-268,-685,-964
-2489,-1696,213,-312,-924,-1177
-2499,-1634,252,-384,-1019,-1502
-2509,-1605,196,-510,-1035,-1923
-2529,-1620,21,-646,-1118,-2353
-2476,-1645,-248,-760,-1234,-2768
-2106,-1628,-465,-768,-1405,-3185
-1532,-1443,-469,-672,-1639,-3562
-961,-1271,-363,-616,-1725,-3902
-287,-1096,-357,-675,-1624,-4184
315,-1087,-493,-754,-1394,-4316
709,-1223,-688,-779,-1213,-4280
979,-1379,-965,-769,-1149,-4116
1285,-1512,-1169,-596,-1165,-3837
1545,-1614,-1185,-298,-1350,-3408
1604,-1648,-1128,13,-1683,-2913
1527,-1600,-1046,267,-2031,-2511
1590,-1440,-940,430,-2239,-2320
1919,-1259,-797,495,-2218,-2298
2452,-1099,-628,486,-1968,-2293
2867,-1093,-523,353,-1494,-2236
3103,-1183,-561,183,-1030,-2145
3346,-1246,-567,148,-736,-1984
3611,-1216,-446,230,-595,-1711
3900,-1130,-230,309,-509,-1387
4196,-1059,-81,288,-352,-1083
4469,-1067,-27,214,-114,-805
4653,-1106,3,147,137,-502
4656,-1155,37,130,338,-132
4480,-1210,48,155,453,296
4183,-1196,55,187,490,758
3787,-1168,73,183,529,1224
3386,-1199,40,90,615,1601
3009,-1278,-27,-33,701,1836
2627,-1341,-187,-137,849,1928
2305,-1416,-375,-199,1060,1922
2103,-1478,-534,-240,1301,1867
1957,-1531,-629,-255,1557,1830
1853,-1551,-692,-241,1774,1855
1696,-1563,-726,-189,1913,1942
1512,-1547,-723,-100,1979,2044
1338,-1489,-666,16,1974,2160
1176,-1405,-608,160,1876,2320
1005,-1306,-501,326,1714,2498
840,-1162,-320,474,1530,2664
696,-1048,-120,556,1358,2832
515,-993,-15,545,1218,2995
258,-984,58,462,1074,3121
-120,-1077,26,297,1023,3144
-530,-1277,-203,89,1125,3006
-700,-1465,-518,-29,1270,2774
-776,-1687,-766,4,1339,2622
-841,-1772,-796,155,1241,2588
-987,-1720,-546,334,1154,2566
-1324,-1622,-240,416,1195,2409
-1767,-1599,57,394,1369,2075
-2247,-1655,250,232,1509,1611
-2692,-1796,233,-17,1489,1100
-3025,-1980,50,-200,1331,628
-3172,-2166,-145,-290,1090,255
-3165,-2279,-277,-260,758,0
-3001,-2278,-266,-169,345,-194
-2777,-2199,-112,-105,-34,-409
-2540,-2043,80,-56,-356,-678
-2323,-1863,251,-57,-597,-950
-2142,-1747,344,-149,-724,-1212
-1982,-1720,272,-327,-788,-1473
-1858,-1741,98,-461,-885,-1706
-1760,-1766,-81,-518,-1026,-1900
-1689,-1794,-227,-525,-1204,-2080
-1660,-1797,-391,-510,-1375,-2266
-1533,-1746,-500,-459,-1602,-2471
-1310,-1635,-501,-378,-1856,-2672
-942,-1432,-441,-335,-2015,-2897
-419,-1249,-388,-361,-2007,-3127
201,-1140,-380,-429,-1879,-3286
677,-1198,-501,-490,-1747,-3294
967,-1329,-654,-518,-1741,-3145
1180,-1436,-842,-543,-1808,-2933
1350,-1559,-1038,-456,-1840,-2708
1453,-1663,-1144,-254,-1980,-2452
1562,-1615,-1095,23,-2241,-2207
1680,-1471,-858,253,-2383,-2017
1895,-1318,-636,314,-2283,-1939
2179,-1256,-499,251,-2024,-1916
2377,-1298,-455,126,-1711,-1850
2553,-1358,-456,58,-1492,-1749
2658,-1401,-444,70,-1402,-1579
2692,-1366,-403,105,-1392,-1372
2802,-1261,-273,135,-1360,-1218
3072,-1115,-104,76,-1195,-1143
3434,-1048,-92,-73,-870,-1128
3771,-1097,-161,-242,-469,-1100
4055,-1202,-290,-396,-76,-1027
4297,-1271,-390,-415,260,-846
4406,-1331,-371,-317,512,-489
4342,-1382,-284,-194,629,-11
4135,-1392,-204,-98,596,509
3782,-1400,-201,-65,526,1020
3425,-1455,-304,-129,516,1463
3137,-1557,-474,-235,549,1810
2785,-1684,-678,-287,640,2047
2437,-1789,-871,-272,821,2130
2160,-1867,-1041,-202,1072,2113
1946,-1895,-1116,-80,1281,2078
1727,-1890,-1116,69,1478,2070
1509,-1844,-1082,229,1659,2093
1309,-1755,-1017,383,1771,2132
1106,-1667,-868,531,1816,2197
968,-1540,-644,647,1807,2247
854,-1424,-447,659,1798,2277
653,-1416,-370,566,1790,2286
437,-1463,-443,437,1782,2282
217,-1539,-574,344,1777,2297
-25,-1632,-734,324,1742,2312
-315,-1711,-900,378,1666,2321
-531,-1763,-951,528,1577,2309
-512,-1693,-804,722,1485,2250
-387,-1532,-540,877,1391,2207
-374,-1408,-242,956,1370,2189
-500,-1333,29,921,1393,2131
-616,-1310,185,781,1396,2009
-736,-1338,243,623,1321,1890
-955,-1427,241,482,1198,1833
-1228,-1524,184,364,1026,1791
-1452,-1629,114,278,831,1706
-1542,-1720,40,249,595,1602
-1586,-1766,29,271,310,1538
-1728,-1783,65,282,66,1472
-2096,-1842,133,245,31,1256
-2520,-1884,202,159,229,769
-2706,-1923,240,44,396,112
-2639,-1936,316,-34,330,-453
-2488,-1884,402,-74,101,-775
-2379,-1822,451,-149,-183,-929
-2269,-1775,449,-254,-498,-1050
-2133,-1724,434,-332,-796,-1216
-2050,-1701,362,-412,-1026,-1449
-2005,-1697,252,-503,-1175,-1773
-1909,-1702,95,-603,-1268,-2164
-1733,-1725,-96,-687,-1353,-2557
-1493,-1731,-275,-707,-1480,-2889
-1282,-1718,-429,-645,-1660,-3110
-1052,-1654,-536,-557,-1878,-3264
-733,-1536,-555,-472,-2108,-3408
-388,-1397,-584,-402,-2278,-3535
-56,-1310,-621,-328,-2396,-3637
348,-1202,-626,-264,-2457,-3762
975,-1048,-621,-267,-2392,-3893
1536,-1015,-635,-337,-2095,-3870
1823,-1142,-802,-416,-1827,-3646
2077,-1277,-1003,-406,-1759,-3348
2317,-1378,-1111,-275,-1742,-3019
2458,-1374,-1085,-70,-1785,-2628
2607,-1323,-960,118,-1886,-2262
2762,-1276,-788,257,-1938,-1929
2873,-1222,-650,300,-1967,-1610
2925,-1190,-515,299,-1958,-1289
2894,-1185,-402,257,-1881,-966
2742,-1224,-407,158,-1810,-661
2554,-1236,-573,76,-1765,-453
2485,-1177,-644,61,-1683,-439
2671,-1108,-604,32,-1396,-667
3151,-990,-570,-99,-858,-1051
3641,-921,-520,-249,-152,-1283
3992,-977,-553,-411,487,-1231
4270,-1111,-637,-507,924,-926
4408,-1225,-669,-476,1058,-375
4270,-1315,-605,-301,999,327
3938,-1322,-481,-64,766,1034
3529,-1233,-354,95,564,1631
3163,-1150,-291,141,504,2070
2858,-1131,-261,103,539,2363
2559,-1155,-263,21,707,2497
2274,-1199,-350,-79,973,2460
2073,-1275,-464,-178,1302,2282
1961,-1387,-618,-270,1663,2078
1916,-1513,-794,-300,2001,1929
1838,-1607,-937,-242,2249,1918
1696,-1656,-968,-115,2325,2029
1561,-1607,-867,58,2269,2197
1393,-1555,-765,180,2184,2392
1161,-1509,-702,246,2041,2594
907,-1494,-662,270,1881,2781
723,-1476,-682,303,1822,2883
652,-1435,-673,344,1782,2925
564,-1382,-605,420,1772,2951
432,-1334,-572,473,1837,2946
252,-1303,-603,519,1927,2929
110,-1258,-540,626,1954,2950
-22,-1166,-260,764,1889,2996
-286,-1084,43,781,1783,3029
-754,-1129,90,587,1680,3047
-1327,-1342,-86,299,1582,3032
-1770,-1569,-334,98,1458,2918
-2053,-1769,-550,58,1299,2731
-2255,-1915,-628,170,1115,2535
-2366,-1922,-496,363,916,2288
-2475,-1895,-232,475,848,1939
-2516,-1848,10,448,828,1476
-2488,-1807,165,341,753,1002
-2451,-1799,274,212,625,677
-2430,-1819,304,86,410,478
-2438,-1846,298,-6,112,315
-2529,-1858,264,-63,-171,122
-2670,-1872,233,-97,-384,-150
-2739,-1836,235,-116,-491,-532
-2738,-1780,272,-147,-530,-977
-2692,-1752,279,-214,-526,-1444
-2559,-1715,257,-295,-562,-1890
-2404,-1707,185,-370,-691,-2257
-2201,-1693,55,-432,-944,-2523
-1880,-1652,-33,-476,-1241,-2722
-1539,-1573,-104,-516,-1527,-2920
-1218,-1498,-206,-555,-1768,-3124
-869,-1448,-342,-582,-1926,-3312
-429,-1397,-497,-581,-1996,-3438
-76,-1430,-615,-546,-1945,-3463
29,-1509,-794,-481,-1895,-3391
37,-1564,-976,-357,-2021,-3269
147,-1530,-1131,-163,-2261,-3213
592,-1363,-1083,67,-2417,-3244
1213,-1177,-925,175,-2254,-3373
1734,-1102,-848,127,-1913,-3490
2224,-1080,-843,38,-1529,-3578
2662,-1148,-895,-31,-1087,-3555
2870,-1354,-953,-15,-785,-3342
2860,-1576,-934,176,-882,-2982
2853,-1655,-821,536,-1303,-2522
2962,-1469,-641,900,-1855,-1996
3297,-1125,-293,1050,-2222,-1422
3708,-946,-5,874,-2110,-861
3922,-880,74,603,-1584,-555
3684,-1065,-86,316,-895,-346
3381,-1307,-296,177,-467,-233
3300,-1263,-264,324,-362,-75
3361,-1009,33,473,-374,181
3384,-901,253,391,-236,400
3320,-867,379,226,40,533
3175,-886,356,17,348,559
3095,-925,271,-179,608,538
3042,-1010,111,-368,862,579
2988,-1116,-50,-497,1067,684
2934,-1239,-182,-563,1237,833
2807,-1343,-311,-567,1346,1033
2660,-1465,-476,-532,1377,1297
2468,-1581,-614,-453,1335,1646
2222,-1623,-677,-309,1179,2070
1999,-1609,-625,-127,985,2458
1759,-1569,-538,16,850,2747
1585,-1501,-450,98,820,2905
1451,-1441,-357,128,899,2996
1232,-1442,-359,83,1055,3031
946,-1492,-428,47,1166,3021
634,-1536,-501,87,1185,3013
369,-1566,-563,157,1144,2989
188,-1616,-623,229,1126,2954
53,-1650,-635,294,1156,2900
-80,-1666,-644,343,1247,2819
-267,-1670,-588,399,1376,2723
-485,-1661,-483,419,1492,2568
-616,-1634,-372,426,1612,2365
-706,-1599,-179,414,1659,2183
-812,-1571,-40,359,1616,2030
-960,-1578,-42,258,1509,1929
-1224,-1677,-101,140,1406,1886
-1627,-1848,-255,59,1296,1779
-1871,-1925,-387,47,1174,1563
-2002,-1959,-354,92,1088,1317
-2137,-1962,-255,141,1053,1054
-2285,-1961,-123,164,1054,734
-2383,-1965,11,176,1050,361
-2399,-1945,121,181,927,-1
-2353,-1909,187,150,669,-267
-2272,-1877,232,93,322,-388
-2182,-1846,255,45,-48,-402
-2103,-1805,313,7,-425,-404
-2018,-1767,365,-45,-747,-487
-1870,-1693,375,-98,-972,-661
-1711,-1625,398,-166,-1068,-858
-1673,-1588,419,-299,-1077,-1071
-1709,-1607,311,-488,-1000,-1352
-1641,-1646,166,-632,-921,-1700
-1559,-1679,28,-712,-890,-2031
-1478,-1720,-122,-764,-913,-2307
-1366,-1761,-242,-757,-1026,-2514
-1239,-1771,-357,-707,-1227,-2645
-1086,-1752,-465,-627,-1469,-2715
-929,-1667,-483,-517,-1741,-2761
-696,-1535,-468,-431,-1958,-2874
-259,-1375,-419,-385,-2010,-3117
180,-1295,-423,-446,-1826,-3442
639,-1249,-561,-572,-1501,-3772
954,-1347,-717,-625,-1264,-3836
1261,-1459,-902,-594,-1195,-3787
1523,-1514,-1111,-425,-1244,-3568
1841,-1525,-1116,-118,-1524,-3144
2262,-1453,-997,147,-1843,-2668
2699,-1313,-876,284,-1998,-2236
3072,-1243,-784,305,-1911,-1859
3282,-1273,-715,261,-1664,-1507
3317,-1318,-692,224,-1376,-1190
3220,-1366,-686,261,-1202,-921
3160,-1289,-480,420,-1199,-704
3236,-1102,-104,496,-1149,-530
3290,-1000,80,344,-940,-420
3292,-1044,69,100,-636,-398
3332,-1129,-7,-93,-338,-415
3415,-1202,-99,-215,-122,-403
3531,-1227,-182,-290,59,-316
3648,-1244,-246,-350,280,-141
3679,-1304,-351,-380,509,90
3549,-1394,-456,-349,672,369
3366,-1433,-477,-261,768,656
