ax,ay,az,gx,gy,gz
928,-2037,-2475,2712,-1366,-2006
1668,-1947,-2712,2406,-591,-2868
2209,-1881,-2918,2230,187,-3365
2563,-1768,-3014,2212,887,-3463
2665,-1686,-2911,2387,1431,-3230
2517,-1566,-2683,2714,1587,-2731
2259,-1325,-2417,3056,1334,-2094
2044,-1080,-2119,3287,899,-1464
1981,-847,-1903,3352,496,-918
1960,-603,-1643,3310,146,-447
1853,-409,-1283,3215,-42,-123
1758,-223,-918,3007,1,-4
1519,-121,-698,2701,261,-56
1310,-91,-606,2424,535,-221
1224,-67,-526,2183,701,-427
1211,-72,-513,1909,916,-585
1251,-188,-660,1568,1190,-631
1245,-423,-827,1322,1327,-522
1192,-630,-922,1230,1243,-313
1200,-681,-934,1243,991,-58
1279,-621,-851,1296,705,255
1373,-558,-688,1307,455,613
1366,-533,-549,1255,350,948
1222,-521,-456,1192,320,1180
1008,-494,-318,1168,308,1251
844,-493,-223,1119,439,1127
753,-527,-264,1032,748,869
775,-572,-299,944,1096,609
864,-577,-247,846,1386,448
889,-588,-175,706,1597,425
787,-639,-141,545,1730,523
629,-683,-86,380,1789,671
517,-727,-24,235,1819,782
399,-779,41,105,1763,897
235,-814,61,-31,1627,1016
108,-834,104,-103,1428,1087
2,-822,218,-150,1221,1102
-88,-833,276,-262,1128,1028
-112,-903,226,-418,1151,868
5,-978,150,-542,1108,727
164,-1018,119,-606,1030,677
231,-1050,115,-661,969,722
190,-1099,114,-719,898,816
89,-1148,128,-781,848,892
-63,-1204,114,-854,862,908
-265,-1262,79,-929,905,864
-436,-1291,67,-991,942,757
-476,-1270,77,-1052,985,605
-372,-1238,79,-1131,1053,459
-290,-1290,17,-1218,1161,338
-210,-1353,-84,-1284,1183,262
-62,-1337,-129,-1308,1075,280
18,-1331,-135,-1336,955,402
-61,-1394,-214,-1394,843,543
-300,-1458,-287,-1402,753,620
-535,-1477,-312,-1393,752,563
-647,-1501,-342,-1422,800,393
-665,-1552,-366,-1459,837,209
-665,-1614,-440,-1493,782,75
-621,-1657,-575,-1497,648,11
-450,-1656,-658,-1474,518,36
-280,-1704,-725,-1469,433,141
-201,-1803,-809,-1434,347,270
-321,-1877,-828,-1305,289,336
-540,-1845,-770,-1152,333,266
-681,-1826,-654,-1075,421,108
-744,-1845,-561,-1094,422,-26
-823,-1919,-602,-1169,317,-81
-945,-2081,-739,-1241,144,-79
-897,-2250,-920,-1277,-54,-79
-684,-2330,-1046,-1274,-233,-101
-469,-2392,-1130,-1260,-329,-109
-317,-2443,-1158,-1242,-331,-135
-326,-2500,-1172,-1201,-271,-201
-404,-2559,-1204,-1135,-235,-316
-384,-2573,-1192,-1039,-247,-436
-332,-2559,-1139,-945,-302,-474
-344,-2569,-1108,-884,-431,-392
-377,-2543,-1094,-839,-644,-228
-424,-2519,-1102,-809,-840,-42
-497,-2530,-1143,-794,-974,136
-688,-2594,-1199,-766,-1030,244
-980,-2661,-1342,-710,-1045,230
-1177,-2693,-1410,-593,-1097,96
-1128,-2654,-1259,-473,-1160,-168
-813,-2568,-1106,-439,-1114,-535
-413,-2513,-1078,-493,-1003,-868
-72,-2542,-1128,-594,-869,-1066
194,-2602,-1234,-661,-750,-1128
403,-2672,-1343,-619,-775,-1029
559,-2748,-1416,-489,-947,-764
542,-2851,-1461,-321,-1185,-404
349,-2937,-1442,-140,-1439,-54
41,-2948,-1357,42,-1677,176
-314,-2915,-1272,158,-1810,220
-591,-2865,-1172,196,-1873,58
-625,-2792,-1100,159,-1817,-297
-423,-2730,-1101,67,-1601,-775
-146,-2759,-1177,-13,-1365,-1217
133,-2816,-1347,-22,-1172,-1496
470,-2859,-1459,37,-1141,-1566
801,-2879,-1547,128,-1205,-1480
1046,-2934,-1720,227,-1226,-1324
1199,-3011,-1837,377,-1162,-1169
1193,-3051,-1881,583,-1071,-1069
1152,-2981,-1839,813,-989,-1068
1114,-2884,-1708,995,-866,-1120
1109,-2760,-1585,1100,-706,-1173
1151,-2659,-1460,1134,-581,-1181
1242,-2568,-1359,1129,-488,-1147
1363,-2429,-1250,1125,-420,-1072
1400,-2308,-1188,1084,-338,-955
1345,-2264,-1193,1035,-279,-831
1247,-2279,-1315,1050,-199,-763
1173,-2256,-1375,1144,-122,-731
1115,-2181,-1335,1283,-63,-724
1100,-2072,-1249,1392,44,-733
1077,-1991,-1158,1461,149,-729
1019,-1889,-1057,1525,190,-700
959,-1748,-908,1562,217,-677
895,-1599,-724,1518,321,-690
881,-1460,-607,1400,432,-745
931,-1346,-544,1256,479,-805
885,-1352,-697,1109,543,-847
973,-1440,-1030,1024,653,-877
1325,-1447,-1214,1067,734,-844
1625,-1353,-1202,1155,831,-710
1711,-1318,-1196,1193,980,-536
1628,-1320,-1192,1262,1095,-389
1525,-1230,-1056,1422,1122,-223
1412,-1043,-793,1546,1027,8
1255,-870,-517,1522,933,253
1078,-808,-366,1369,926,419
910,-781,-266,1189,954,465
806,-760,-256,1005,1035,402
724,-785,-323,831,1135,305
646,-863,-461,698,1233,205
673,-883,-578,632,1351,112
763,-869,-590,596,1477,87
799,-808,-519,537,1556,176
725,-782,-416,458,1551,342
627,-747,-300,373,1507,492
530,-696,-194,286,1458,584
435,-655,-122,185,1412,612
384,-657,-64,18,1408,594
335,-731,-114,-197,1425,577
306,-810,-178,-368,1385,597
265,-901,-228,-486,1370,641
225,-964,-275,-563,1380,674
163,-987,-244,-592,1368,689
51,-1015,-205,-623,1391,666
34,-975,-147,-664,1437,598
54,-924,-58,-718,1459,533
9,-920,16,-808,1462,483
-29,-943,68,-935,1480,437
-63,-1009,103,-1075,1460,421
-118,-1103,115,-1208,1355,477
-258,-1236,32,-1317,1200,569
-385,-1347,-99,-1361,1007,645
-480,-1413,-191,-1344,843,695
-560,-1454,-244,-1338,779,694
-615,-1478,-292,-1360,788,608
-682,-1474,-302,-1377,844,445
-802,-1514,-287,-1387,914,231
-884,-1551,-296,-1408,927,25
-886,-1603,-326,-1456,787,-80
-926,-1724,-399,-1543,538,-56
-969,-1854,-553,-1642,248,28
-948,-1981,-675,-1697,-27,103
-965,-2039,-762,-1687,-231,139
-1017,-2038,-841,-1636,-317,76
-1046,-2051,-858,-1579,-270,-102
-1005,-2045,-796,-1530,-211,-312
-942,-2047,-718,-1483,-249,-461
-897,-2068,-737,-1485,-368,-534
-858,-2158,-811,-1516,-574,-506
-837,-2275,-925,-1540,-827,-418
-874,-2380,-1076,-1546,-1060,-325
-911,-2463,-1215,-1521,-1220,-289
-819,-2504,-1275,-1449,-1278,-358
-733,-2565,-1299,-1356,-1252,-516
-679,-2650,-1355,-1243,-1184,-712
-604,-2689,-1369,-1105,-1192,-827
-519,-2713,-1352,-976,-1316,-796
-463,-2778,-1357,-927,-1492,-679
-305,-2870,-1434,-974,-1622,-617
-28,-2936,-1552,-1020,-1619,-667
262,-2987,-1692,-991,-1487,-772
555,-3041,-1751,-867,-1358,-854
741,-3058,-1708,-622,-1326,-830
801,-3053,-1667,-333,-1390,-684
743,-3015,-1573,-58,-1539,-408
457,-2967,-1403,163,-1735,-85
-11,-2878,-1302,288,-1931,136
-288,-2803,-1242,309,-2047,87
-141,-2776,-1190,196,-1936,-271
262,-2824,-1339,34,-1518,-815
683,-2904,-1563,15,-1151,-1279
1105,-2975,-1695,144,-915,-1512
1483,-3013,-1746,318,-796,-1433
1660,-3075,-1812,512,-866,-1066
1560,-3137,-1820,778,-1052,-582
1307,-3104,-1763,1047,-1242,-209
1038,-2975,-1671,1242,-1335,-61
807,-2856,-1602,1345,-1263,-129
705,-2735,-1542,1391,-1068,-350
747,-2570,-1408,1434,-842,-631
849,-2466,-1256,1431,-592,-889
1034,-2440,-1217,1382,-384,-1033
1210,-2426,-1224,1366,-331,-985
1241,-2371,-1198,1408,-417,-777
1111,-2279,-1193,1479,-572,-520
942,-2190,-1214,1529,-682,-341
912,-2056,-1174,1557,-654,-337
987,-1907,-1055,1561,-519,-475
1048,-1840,-947,1508,-285,-665
1100,-1855,-964,1432,-48,-852
1210,-1840,-952,1416,39,-941
1286,-1796,-907,1419,73,-901
1265,-1742,-885,1391,98,-769
1203,-1680,-808,1361,104,-626
1116,-1629,-759,1319,155,-542
1105,-1560,-775,1265,234,-517
1123,-1510,-803,1217,318,-506
1147,-1489,-888,1173,439,-512
1215,-1491,-1028,1172,614,-536
1373,-1464,-1083,1224,825,-548
1419,-1393,-1026,1314,986,-498
1330,-1273,-887,1401,1069,-391
1196,-1130,-673,1432,1095,-261
1083,-981,-476,1369,1112,-147
990,-893,-330,1226,1141,-80
909,-855,-285,1044,1205,-58
885,-818,-280,868,1242,-57
924,-781,-273,703,1264,-55
930,-789,-322,546,1332,-51
872,-893,-480,419,1474,-59
860,-972,-628,375,1565,-24
859,-972,-635,404,1530,135
797,-905,-531,419,1418,386
665,-800,-370,371,1328,629
472,-760,-258,264,1308,770
264,-786,-173,150,1324,780
123,-802,-124,21,1400,693
49,-820,-70,-128,1484,584
24,-839,-24,-289,1489,513
-20,-893,-16,-447,1474,479
-88,-959,-30,-556,1438,448
-97,-999,-74,-619,1358,425
-32,-1015,-106,-662,1252,448
28,-1015,-111,-711,1107,538
3,-1061,-123,-785,1000,637
-84,-1159,-135,-865,993,647
-154,-1231,-149,-911,1027,555
-155,-1238,-110,-941,1069,434
-189,-1247,-70,-1004,1136,338
-257,-1306,-115,-1083,1148,279
-274,-1348,-167,-1127,1031,280
-258,-1359,-188,-1152,877,337
-265,-1394,-277,-1181,760,409
-241,-1480,-413,-1212,681,459
-194,-1610,-560,-1226,613,508
-179,-1742,-641,-1172,553,571
-292,-1770,-553,-1075,493,599
-491,-1736,-410,-1022,512,526
-627,-1702,-295,-1038,583,342
-639,-1689,-238,-1088,654,133
-583,-1722,-234,-1165,690,-3
-505,-1773,-304,-1237,584,-9
-408,-1807,-364,-1297,371,105
-419,-1939,-482,-1383,209,292
-559,-2124,-593,-1441,53,498
-790,-2237,-628,-1397,-141,601
-965,-2257,-613,-1324,-259,549
-1083,-2289,-596,-1296,-253,370
-1175,-2355,-606,-1309,-187,97
-1205,-2452,-642,-1322,-153,-207
-1138,-2544,-692,-1299,-245,-421
-1029,-2622,-784,-1267,-456,-461
-878,-2698,-919,-1242,-723,-367
-749,-2761,-981,-1210,-942,-242
-768,-2852,-1060,-1205,-1043,-170
-781,-2952,-1150,-1158,-1076,-215
-633,-2989,-1161,-1036,-1106,-346
-419,-2963,-1092,-897,-1122,-474
-283,-2932,-988,-780,-1122,-538
-215,-2971,-1002,-703,-1150,-537
-165,-3036,-1093,-613,-1282,-451
-221,-3085,-1169,-491,-1498,-273
-287,-3085,-1159,-371,-1711,-135
-270,-3068,-1112,-311,-1756,-173
-170,-3080,-1155,-303,-1619,-384
-12,-3111,-1231,-246,-1464,-628
174,-3127,-1256,-115,-1393,-779
317,-3104,-1256,40,-1395,-767
330,-3134,-1299,196,-1510,-594
268,-3125,-1313,368,-1705,-372
157,-3033,-1212,533,-1877,-240
79,-2969,-1160,599,-1901,-319
188,-2954,-1200,592,-1753,-612
404,-2937,-1291,585,-1521,-965
617,-2921,-1382,626,-1328,-1223
829,-2938,-1467,687,-1147,-1334
1039,-2943,-1548,785,-1068,-1272
1138,-2931,-1603,949,-1135,-1052
1144,-2844,-1627,1138,-1271,-772
1152,-2698,-1550,1298,-1353,-550
1197,-2545,-1402,1391,-1298,-480
1226,-2432,-1301,1448,-1111,-575
1255,-2354,-1218,1514,-847,-798
1366,-2266,-1128,1558,-543,-1067
1524,-2193,-1067,1561,-259,-1244
1685,-2186,-1069,1536,-41,-1255
1848,-2168,-1091,1524,42,-1100
1937,-2113,-1042,1554,48,-841
1877,-2031,-955,1600,54,-573
1707,-1891,-840,1655,49,-354
1550,-1723,-697,1668,71,-207
1446,-1592,-590,1613,157,-130
1338,-1532,-544,1523,320,-132
1221,-1503,-540,1441,469,-203
1195,-1492,-535,1369,593,-285
1205,-1518,-580,1282,724,-315
1150,-1590,-722,1222,817,-277
1134,-1605,-854,1243,825,-194
1148,-1510,-850,1330,805,-69
1097,-1367,-726,1401,832,66
967,-1228,-577,1423,909,127
807,-1077,-398,1418,1001,76
682,-923,-188,1353,1126,-59
595,-826,-61,1200,1336,-260
619,-771,-6,994,1567,-451
648,-799,-19,791,1725,-535
670,-883,-151,601,1753,-467
684,-1004,-373,491,1610,-227
674,-1027,-443,498,1345,145
574,-943,-352,516,1144,493
443,-870,-240,492,1037,711
304,-819,-145,450,975,807
185,-766,-65,370,1006,798
93,-743,14,225,1156,693
28,-779,48,31,1354,529
1,-819,60,-152,1487,366
5,-780,106,-286,1550,246
6,-748,190,-415,1603,169
-65,-813,168,-547,1594,137
-125,-890,40,-647,1484,164
-141,-961,-48,-719,1280,286
-171,-1023,-65,-792,1080,450
-194,-1067,-23,-868,913,595
-246,-1146,19,-956,796,699
-302,-1191,38,-1042,721,727
-391,-1228,51,-1113,712,673
-450,-1265,41,-1189,764,561
-469,-1308,4,-1258,827,426
-458,-1315,-14,-1310,849,321
-470,-1323,-20,-1353,831,271
-500,-1362,-61,-1402,774,266
-540,-1436,-137,-1452,664,294
-598,-1553,-273,-1495,521,361
-595,-1643,-358,-1523,395,427
-637,-1745,-421,-1553,333,445
-656,-1867,-505,-1572,353,384
-655,-1937,-528,-1537,346,294
-676,-1901,-463,-1476,298,214
-690,-1861,-378,-1468,276,138
-682,-1850,-336,-1502,249,60
-646,-1866,-353,-1544,194,-9
-576,-1946,-435,-1576,120,-44
-516,-2065,-565,-1589,-13,-45
-476,-2217,-737,-1607,-125,-27
-414,-2353,-873,-1606,-200,-10
-381,-2440,-920,-1543,-263,-22
-369,-2475,-916,-1449,-301,-61
-366,-2496,-896,-1334,-345,-109
-367,-2508,-839,-1209,-411,-125
-369,-2496,-754,-1100,-541,-72
-403,-2505,-697,-1018,-741,66
-492,-2532,-718,-954,-958,270
-643,-2564,-760,-901,-1186,481
-828,-2604,-794,-876,-1316,605
-946,-2610,-816,-891,-1294,598
-1036,-2728,-893,-943,-1143,457
-1129,-2879,-1069,-939,-1031,219
-1086,-2898,-1119,-789,-1033,-11
-952,-2831,-1055,-624,-1063,-178
-850,-2762,-989,-526,-1108,-263
-800,-2721,-903,-459,-1199,-296
-707,-2667,-863,-427,-1289,-345
-564,-2648,-918,-432,-1356,-412
-397,-2683,-1024,-442,-1377,-496
-222,-2733,-1174,-412,-1332,-595
7,-2735,-1212,-331,-1293,-671
162,-2735,-1205,-235,-1251,-692
266,-2744,-1232,-122,-1225,-655
352,-2756,-1202,2,-1236,-553
367,-2797,-1192,93,-1270,-414
340,-2802,-1166,187,-1357,-244
254,-2782,-1105,272,-1476,-60
58,-2797,-1072,312,-1593,84
-138,-2801,-1073,336,-1673,100
-280,-2823,-1098,321,-1653,-87
-207,-2955,-1289,252,-1477,-458
104,-3070,-1568,264,-1255,-858
473,-3079,-1708,394,-1113,-1115
817,-3035,-1706,555,-990,-1189
1087,-2983,-1653,688,-848,-1128
1174,-3002,-1577,812,-737,-976
1192,-3008,-1487,929,-738,-759
1200,-2976,-1466,1043,-822,-529
1117,-2880,-1401,1156,-914,-321
957,-2719,-1263,1248,-915,-217
850,-2541,-1101,1283,-806,-298
909,-2384,-999,1260,-621,-502
1031,-2277,-885,1213,-385,-707
1094,-2292,-944,1139,-92,-887
1156,-2378,-1112,1113,176,-1010
1231,-2468,-1321,1184,325,-1003
1335,-2449,-1442,1347,349,-826
1269,-2310,-1336,1567,297,-567
1044,-2127,-1168,1758,337,-407
885,-1919,-966,1896,458,-409
813,-1711,-710,1987,575,-501
766,-1544,-521,1989,697,-600
763,-1441,-388,1913,834,-679
826,-1381,-285,1797,979,-731
859,-1348,-216,1666,1086,-739
879,-1299,-145,1535,1130,-692
918,-1249,-126,1374,1151,-596
834,-1274,-194,1220,1140,-440
704,-1343,-372,1126,1109,-275
695,-1330,-495,1103,1092,-153
725,-1244,-451,1130,1081,-41
670,-1128,-351,1140,1110,68
468,-1035,-228,1123,1185,100
289,-937,-88,1081,1283,5
291,-803,54,986,1465,-185
381,-710,185,822,1677,-334
398,-679,291,618,1794,-365
368,-677,354,403,1836,-339
324,-715,272,203,1835,-276
290,-780,88,55,1708,-100
261,-838,-76,-8,1520,183
220,-797,-117,-29,1340,505
28,-775,-44,-80,1249,745
-238,-798,-5,-174,1285,751
-364,-814,20,-285,1412,540
-304,-836,-1,-411,1565,287
-180,-908,-69,-547,1639,149
-142,-998,-133,-656,1630,135
-139,-1057,-163,-729,1579,172
-142,-1106,-174,-769,1442,266
-185,-1125,-149,-800,1239,448
-323,-1199,-175,-855,1016,660
-471,-1284,-218,-902,763,850
-600,-1313,-195,-940,565,950
-693,-1312,-133,-993,513,899
-741,-1294,-72,-1085,602,696
-725,-1304,-67,-1203,778,404
-643,-1366,-134,-1320,978,116
-525,-1404,-171,-1389,1069,-67
-489,-1432,-167,-1419,1057,-105
-481,-1529,-204,-1479,965,-22
-527,-1630,-284,-1520,687,188
-762,-1706,-348,-1516,343,460
-1046,-1788,-402,-1516,117,605
-1268,-1850,-463,-1515,-54,563
-1375,-1850,-441,-1494,-152,382
-1286,-1799,-356,-1525,-123,120
-1213,-1884,-388,-1645,-26,-158
-1156,-2049,-556,-1742,-12,-372
-1036,-2167,-713,-1743,-156,-462
-870,-2234,-770,-1712,-352,-432
-793,-2325,-772,-1698,-514,-352
-863,-2429,-852,-1665,-687,-286
-1009,-2513,-956,-1568,-892,-238
-1088,-2539,-979,-1448,-1086,-194
-1177,-2520,-923,-1346,-1270,-180
-1255,-2509,-848,-1294,-1370,-268
-1164,-2536,-797,-1323,-1369,-488
-881,-2594,-807,-1398,-1280,-792
-489,-2733,-911,-1458,-1170,-1059
-91,-2869,-1084,-1466,-1129,-1159
191,-2970,-1227,-1393,-1168,-1025
296,-3042,-1276,-1228,-1290,-740
175,-3068,-1246,-987,-1492,-419
-115,-2996,-1160,-736,-1721,-169
-412,-2868,-1024,-546,-1875,-61
-641,-2792,-953,-475,-1943,-56
-902,-2787,-995,-465,-1995,-130
-1126,-2791,-1101,-446,-2019,-320
-1147,-2749,-1194,-421,-1994,-621
-902,-2700,-1290,-415,-1899,-972
-553,-2708,-1439,-392,-1766,-1290
-171,-2719,-1552,-297,-1634,-1537
336,-2692,-1566,-159,-1537,-1706
869,-2671,-1563,-12,-1469,-1710
1214,-2712,-1579,139,-1444,-1523
1342,-2756,-1521,341,-1471,-1214
1405,-2766,-1434,511,-1527,-914
1488,-2785,-1356,622,-1500,-748
1562,-2824,-1292,695,-1339,-734
1563,-2885,-1321,763,-1052,-839
1557,-2921,-1397,858,-766,-992
1661,-2939,-1481,993,-518,-1089
1759,-2917,-1540,1143,-360,-1011
1801,-2856,-1521,1307,-298,-780
1734,-2768,-1429,1471,-261,-535
1580,-2670,-1317,1621,-218,-363
1395,-2501,-1156,1752,-165,-264
1178,-2338,-1017,1814,-82,-238
993,-2223,-880,1801,44,-275
868,-2120,-792,1756,193,-377
808,-2033,-692,1704,307,-509
795,-1998,-692,1615,401,-624
834,-1969,-820,1536,443,-669
914,-1953,-918,1499,462,-648
1004,-1947,-1008,1479,539,-604
1053,-1920,-1075,1519,630,-545
1078,-1829,-1010,1621,669,-482
1021,-1713,-877,1706,716,-416
866,-1610,-740,1727,780,-352
748,-1485,-581,1695,840,-355
775,-1379,-456,1603,970,-445
835,-1334,-430,1476,1121,-549
887,-1305,-444,1368,1216,-596
934,-1253,-446,1291,1260,-575
999,-1194,-428,1240,1274,-508
1042,-1067,-394,1200,1291,-393
1028,-1018,-351,1119,1337,-231
966,-1033,-336,1040,1382,-78
868,-1022,-306,988,1418,19
820,-972,-256,939,1454,93
824,-924,-184,844,1486,206
731,-925,-160,716,1486,361
572,-940,-177,589,1469,496
414,-920,-176,476,1462,570
298,-923,-175,366,1485,572
271,-937,-199,259,1553,521
353,-935,-221,154,1660,456
394,-978,-253,49,1772,428
316,-976,-235,-12,1814,472
197,-897,-143,-52,1833,519
98,-806,6,-112,1862,538
-5,-706,184,-220,1880,532
-92,-637,338,-379,1890,490
-157,-593,438,-547,1831,463
-200,-619,446,-757,1730,467
-312,-760,212,-972,1589,517
-384,-947,-56,-1105,1368,649
-460,-1130,-228,-1168,1147,810
-560,-1267,-352,-1180,1015,898
-736,-1412,-395,-1165,960,913
-909,-1441,-293,-1126,946,818
-954,-1388,-125,-1138,980,622
-976,-1360,-4,-1237,1025,427
-1072,-1440,-20,-1391,1020,284
-1166,-1505,-108,-1508,903,193
-1243,-1545,-161,-1567,724,148
-1302,-1570,-174,-1619,540,142
-1311,-1645,-173,-1729,413,103
-1283,-1777,-264,-1848,342,-34
-1204,-1899,-399,-1885,240,-196
-1092,-1993,-503,-1862,115,-303
-971,-2048,-530,-1820,9,-365
-870,-2056,-493,-1786,-91,-412
-814,-2058,-467,-1769,-187,-449
-788,-2090,-509,-1769,-298,-451
-797,-2120,-571,-1752,-460,-402
-876,-2172,-618,-1739,-628,-350
-800,-2274,-679,-1773,-702,-392
-562,-2387,-774,-1827,-692,-526
-355,-2545,-908,-1855,-637,-637
-171,-2698,-1053,-1806,-638,-691
26,-2742,-1073,-1628,-716,-678
86,-2737,-1014,-1455,-771,-585
-41,-2807,-1011,-1310,-829,-424
-255,-2838,-1005,-1132,-1005,-250
-442,-2771,-933,-970,-1237,-78
-691,-2739,-904,-893,-1445,83
-987,-2752,-956,-872,-1595,123
-1181,-2726,-1027,-845,-1685,-22
-1058,-2709,-1016,-841,-1626,-383
-474,-2769,-1101,-930,-1321,-922
141,-2874,-1239,-907,-1054,-1376
653,-2924,-1349,-752,-923,-1544
1076,-2920,-1367,-553,-906,-1384
1188,-2943,-1283,-312,-1013,-964
1008,-2928,-1156,-72,-1232,-487
662,-2857,-1044,119,-1483,-115
254,-2795,-970,230,-1628,103
-87,-2764,-956,264,-1715,171
-334,-2737,-952,260,-1739,57
-272,-2755,-976,206,-1547,-311
149,-2871,-1193,147,-1153,-846
653,-2955,-1392,244,-853,-1257
1030,-2974,-1505,436,-678,-1358
1317,-2953,-1498,644,-666,-1141
1361,-2936,-1368,874,-811,-698
1114,-2867,-1220,1081,-1055,-204
755,-2779,-1064,1200,-1271,120
559,-2812,-1084,1167,-1266,135
577,-2880,-1279,1140,-1168,-37
612,-2852,-1373,1217,-1016,-265
570,-2807,-1362,1289,-719,-534
627,-2747,-1387,1328,-409,-808
754,-2661,-1346,1443,-289,-918
815,-2544,-1211,1564,-261,-808
780,-2429,-1117,1642,-320,-592
675,-2253,-986,1733,-499,-366
548,-2068,-812,1756,-588,-244
513,-1904,-684,1696,-544,-285
562,-1806,-599,1607,-408,-471
735,-1748,-570,1496,-196,-735
987,-1724,-602,1406,31,-956
1195,-1754,-712,1344,209,-1037
1298,-1845,-877,1323,335,-976
1324,-1922,-1048,1386,384,-837
1328,-1889,-1064,1542,355,-643
1242,-1763,-951,1688,317,-425
1157,-1602,-781,1752,292,-258
1090,-1449,-610,1733,340,-188
954,-1368,-489,1650,485,-231
863,-1362,-448,1516,733,-378
951,-1366,-434,1384,975,-524
1013,-1336,-387,1284,1119,-547
992,-1315,-304,1190,1186,-472
918,-1288,-213,1103,1195,-363
830,-1217,-138,1029,1146,-236
764,-1146,-86,944,1091,-103
713,-1185,-130,815,1099,-15
735,-1255,-255,714,1119,32
711,-1287,-322,698,1133,90
650,-1247,-270,706,1172,132
560,-1178,-145,679,1284,96
467,-1136,-59,595,1492,-27
467,-1118,-30,487,1662,-140
510,-1076,1,396,1663,-114
498,-1007,49,300,1549,58
401,-969,79,184,1464,245
273,-948,107,86,1410,366
166,-876,180,18,1350,428
79,-773,284,-71,1296,441
-8,-706,378,-203,1337,374
-63,-710,394,-372,1457,209
-11,-764,306,-531,1574,16
174,-796,219,-641,1592,-58
271,-823,162,-740,1506,61
224,-841,130,-839,1369,282
62,-878,70,-928,1214,502
-123,-932,4,-1001,1069,663
-271,-1035,-43,-1058,991,737
-434,-1150,-64,-1110,933,756
-606,-1266,-139,-1175,886,732
-718,-1381,-192,-1227,832,674
-823,-1457,-191,-1261,784,589
-911,-1503,-200,-1309,792,449
-906,-1516,-183,-1353,797,287
-916,-1515,-160,-1407,744,188
-964,-1520,-159,-1472,619,161
-964,-1509,-138,-1540,463,147
-934,-1508,-154,-1622,314,117
-895,-1623,-267,-1710,218,73
-813,-1789,-411,-1776,145,22
-766,-1896,-483,-1783,37,-4
-739,-1909,-483,-1774,-63,-35
-733,-1941,-511,-1792,-84,-116
-719,-2054,-646,-1810,-52,-237
-687,-2114,-723,-1751,-100,-319
-722,-2106,-682,-1657,-215,-322
-849,-2112,-668,-1623,-348,-272
-948,-2189,-687,-1638,-532,-213
-932,-2268,-723,-1698,-695,-224
-761,-2390,-832,-1777,-723,-379
-506,-2508,-954,-1799,-679,-612
-262,-2631,-1067,-1753,-642,-765
-56,-2722,-1164,-1639,-679,-765
40,-2774,-1176,-1465,-798,-605
-3,-2828,-1135,-1300,-982,-350
-212,-2879,-1136,-1151,-1205,-86
-501,-2872,-1093,-1008,-1437,89
-596,-2845,-992,-966,-1535,50
-464,-2893,-1037,-1024,-1414,-239
-132,-2973,-1142,-1032,-1208,-627
255,-3002,-1217,-969,-1043,-900
539,-3021,-1265,-869,-932,-976
787,-3037,-1299,-712,-880,-886
898,-3024,-1212,-479,-976,-603
720,-2985,-1094,-246,-1191,-229
320,-2918,-1049,-67,-1406,79
-42,-2848,-998,46,-1545,228
-385,-2806,-980,112,-1620,228
-712,-2771,-1035,147,-1631,75
-901,-2682,-1022,192,-1585,-264
-601,-2582,-1006,161,-1369,-790
119,-2632,-1082,88,-1048,-1313
739,-2704,-1209,120,-803,-1596
1269,-2728,-1309,263,-680,-1570
1580,-2689,-1235,472,-788,-1214
1478,-2629,-1127,661,-985,-693
1208,-2582,-1050,788,-1109,-304
917,-2558,-958,879,-1120,-163
692,-2523,-936,929,-1068,-229
638,-2491,-924,931,-935,-413
718,-2542,-955,883,-701,-658
890,-2643,-1092,862,-472,-894
1112,-2707,-1199,938,-308,-1024
1297,-2686,-1237,1075,-245,-951
1359,-2603,-1186,1225,-256,-728
1272,-2522,-1114,1341,-256,-494
1051,-2486,-1098,1421,-221,-358
890,-2453,-1082,1494,-162,-343
827,-2378,-1033,1553,-112,-368
775,-2339,-969,1569,-69,-375
711,-2306,-928,1565,-24,-390
653,-2220,-828,1589,19,-453
669,-2092,-666,1595,116,-570
703,-1988,-572,1557,235,-676
697,-1920,-535,1505,295,-715
732,-1859,-515,1451,319,-712
780,-1839,-540,1406,318,-679
809,-1856,-646,1386,305,-623
890,-1814,-676,1410,288,-532
949,-1733,-609,1439,289,-429
984,-1647,-542,1444,349,-411
1102,-1557,-491,1432,464,-468
1190,-1468,-449,1403,575,-492
1250,-1410,-385,1360,658,-450
1334,-1362,-264,1295,782,-347
1151,-1290,-258,1219,956,-225
951,-1206,-315,1188,1007,-212
969,-1046,-239,1175,962,-241
1037,-892,-134,1083,1006,-211
1059,-811,-112,893,1140,-151
1031,-870,-175,709,1256,-97
1018,-928,-250,602,1262,-18
979,-917,-255,537,1207,108
878,-912,-238,448,1193,218
773,-957,-233,344,1234,260
722,-977,-189,263,1272,301
671,-988,-130,185,1276,390
612,-975,-72,82,1271,487
469,-955,-19,-37,1269,543
254,-1007,-82,-173,1323,523
155,-1044,-132,-264,1371,448
129,-1027,-90,-322,1378,376
80,-1043,-62,-395,1392,342
62,-1041,-14,-466,1394,322
42,-1010,45,-531,1341,344
-22,-989,81,-620,1252,399
-85,-965,111,-720,1165,428
-75,-937,145,-823,1130,379
-6,-905,161,-939,1161,268
23,-912,135,-1065,1215,153
56,-962,66,-1191,1242,98
120,-1058,-30,-1291,1185,161
166,-1208,-124,-1368,1063,328
139,-1345,-209,-1409,895,544
20,-1442,-274,-1411,748,731
-122,-1478,-322,-1404,688,810
-285,-1505,-337,-1407,735,750
-504,-1558,-371,-1436,861,572
-638,-1581,-404,-1459,960,344
-662,-1581,-370,-1473,985,140
-678,-1638,-351,-1531,960,15
-699,-1808,-422,-1628,855,8
-725,-1994,-524,-1697,618,138
-804,-2121,-602,-1698,341,338
-942,-2164,-589,-1647,116,485
-1098,-2171,-516,-1599,-19,506
-1241,-2204,-517,-1566,-93,403
-1322,-2213,-516,-1513,-181,235
-1295,-2180,-472,-1478,-254,23
-1186,-2202,-501,-1492,-274,-217
-1030,-2351,-718,-1520,-270,-453
-859,-2498,-918,-1462,-319,-614
-675,-2577,-1016,-1351,-405,-664
-490,-2620,-1045,-1249,-558,-598
-426,-2650,-1001,-1154,-732,-443
-433,-2671,-949,-1067,-882,-307
-549,-2717,-951,-983,-981,-243
-683,-2753,-950,-893,-1104,-217
-785,-2709,-873,-787,-1278,-228
-847,-2650,-821,-767,-1383,-281
-876,-2677,-856,-796,-1472,-355
-859,-2684,-936,-806,-1599,-457
-759,-2686,-1001,-813,-1674,-606
-519,-2725,-1109,-838,-1686,-803
-145,-2793,-1247,-821,-1645,-1019
310,-2811,-1346,-763,-1559,-1183
717,-2839,-1394,-660,-1458,-1175
984,-2839,-1344,-485,-1433,-1007
1004,-2825,-1197,-250,-1516,-727
813,-2719,-1047,-53,-1678,-443
498,-2593,-971,58,-1796,-189
163,-2567,-972,79,-1851,-39
-109,-2538,-1007,84,-1895,-59
-269,-2505,-1062,95,-1912,-264
29,-2520,-1106,36,-1728,-692
645,-2622,-1259,-28,-1313,-1236
1201,-2750,-1452,45,-991,-1599
1644,-2818,-1511,205,-791,-1628
1966,-2850,-1479,369,-746,-1342
1965,-2889,-1443,534,-845,-843
1725,-2963,-1465,680,-947,-377
1470,-2920,-1444,858,-993,-110
1203,-2832,-1391,989,-965,-2
957,-2806,-1343,1052,-836,-43
922,-2757,-1273,1091,-652,-236
967,-2699,-1207,1133,-478,-450
1027,-2645,-1186,1159,-313,-598
1097,-2621,-1190,1179,-185,-686
1170,-2648,-1277,1197,-104,-703
1197,-2682,-1377,1233,-84,-623
1129,-2696,-1400,1293,-84,-496
941,-2710,-1359,1352,-65,-417
734,-2720,-1333,1427,-3,-459
595,-2684,-1216,1548,67,-580
559,-2548,-1031,1670,43,-699
573,-2328,-805,1733,34,-812
546,-2151,-649,1711,123,-965
585,-2008,-592,1664,220,-1172
758,-1832,-513,1655,274,-1362
964,-1618,-409,1619,397,-1486
1127,-1453,-328,1521,537,-1532
1268,-1343,-345,1365,655,-1516
1390,-1313,-507,1216,747,-1424
1440,-1375,-771,1146,801,-1227
1525,-1422,-1023,1173,816,-957
1581,-1331,-1027,1275,770,-604
1491,-1212,-923,1379,735,-228
1322,-1049,-773,1468,683,76
1091,-836,-557,1512,658,291
867,-680,-376,1456,724,374
617,-619,-250,1331,918,297
358,-575,-183,1172,1166,88
277,-526,-122,1014,1383,-172
396,-487,-37,839,1539,-374
590,-514,-35,617,1667,-446
786,-615,-108,431,1664,-369
966,-709,-157,324,1604,-194
983,-757,-158,282,1487,58
890,-755,-110,255,1343,362
782,-718,-9,197,1205,659
616,-681,93,104,1089,897
352,-718,169,-37,1124,961
113,-836,172,-205,1264,832
-43,-955,170,-337,1422,602
-7,-1028,136,-470,1538,366
135,-1094,110,-576,1551,270
207,-1186,63,-663,1489,324
228,-1229,27,-714,1378,430
249,-1198,55,-720,1242,540
202,-1135,101,-726,1134,634
56,-1106,100,-765,1079,678
-41,-1116,85,-815,1043,663
-113,-1130,115,-882,991,640
-261,-1207,105,-996,977,621
-402,-1316,37,-1120,986,581
-435,-1394,-24,-1212,958,539
-453,-1474,-72,-1257,858,576
-521,-1496,-64,-1262,720,637
-539,-1452,-23,-1286,657,623
-526,-1452,-12,-1335,670,532
-520,-1520,-68,-1386,702,402
-491,-1584,-133,-1403,687,310
-469,-1703,-163,-1416,606,315
-527,-1832,-181,-1446,442,417
-695,-1961,-203,-1469,254,531
-846,-2086,-225,-1487,81,581
-943,-2188,-246,-1489,-98,565
-919,-2289,-292,-1493,-228,463
-699,-2378,-337,-1513,-256,286
-458,-2464,-433,-1545,-209,103
-341,-2610,-636,-1542,-161,-41
-206,-2707,-829,-1460,-161,-124
-50,-2696,-834,-1317,-211,-136
17,-2600,-749,-1181,-248,-121
15,-2491,-633,-1072,-276,-111
6,-2405,-552,-988,-347,-72
-50,-2354,-517,-922,-490,27
-214,-2315,-526,-874,-675,162
-377,-2264,-549,-856,-857,283
-544,-2245,-576,-843,-950,342
-726,-2300,-629,-861,-933,269
-829,-2357,-652,-857,-897,68
-817,-2381,-589,-833,-897,-161
-706,-2411,-558,-862,-941,-341
-553,-2501,-619,-934,-1008,-472
-288,-2650,-774,-1013,-1046,-581
24,-2811,-957,-1031,-1058,-658
260,-2952,-1092,-959,-1071,-681
464,-3051,-1172,-808,-1102,-610
569,-3087,-1116,-600,-1172,-418
516,-3093,-1052,-418,-1278,-146
260,-3106,-1012,-255,-1406,117
-71,-3096,-981,-127,-1497,265
-318,-3062,-957,-23,-1533,268
-481,-2978,-888,61,-1579,166
-561,-2928,-875,77,-1504,-87
-340,-2978,-1013,64,-1289,-504
199,-2984,-1077,145,-1108,-876
590,-2942,-1075,295,-1015,-987
779,-2903,-1091,431,-983,-877
856,-2840,-1064,603,-1081,-641
752,-2706,-910,796,-1262,-354
499,-2592,-776,888,-1333,-172
276,-2542,-746,905,-1354,-140
184,-2483,-715,912,-1387,-206
179,-2438,-717,863,-1320,-364
298,-2444,-811,789,-1152,-616
571,-2424,-874,790,-1003,-868
836,-2400,-899,839,-888,-1001
1074,-2379,-901,870,-774,-990
1299,-2370,-901,892,-703,-881
1419,-2389,-917,928,-659,-714
1426,-2409,-945,966,-623,-553
1396,-2355,-909,1045,-586,-427
1337,-2322,-843,1103,-520,-338
1266,-2313,-832,1135,-431,-323
1219,-2307,-884,1188,-349,-337
1247,-2283,-885,1237,-291,-295
1258,-2199,-809,1265,-235,-220
1177,-2146,-768,1260,-122,-169
1066,-2087,-756,1256,21,-169
947,-2037,-698,1252,181,-212
786,-1998,-675,1228,312,-268
714,-1920,-614,1211,403,-334
734,-1864,-575,1162,475,-390
806,-1802,-560,1101,518,-401
860,-1715,-507,1043,552,-375
859,-1658,-487,974,619,-363
893,-1593,-506,928,687,-357
868,-1576,-568,907,737,-310
860,-1564,-650,920,780,-235
860,-1514,-686,995,793,-159
850,-1417,-619,1065,843,-80
804,-1319,-464,1085,933,-22
743,-1244,-295,1054,1040,-38
686,-1149,-173,990,1116,-75
600,-1065,-114,885,1179,-56
557,-1024,-76,748,1196,-11
563,-991,-40,617,1205,18
484,-983,-47,498,1224,65
351,-1011,-107,400,1220,118
228,-1044,-229,336,1228,148
235,-1053,-263,277,1250,161
279,-1054,-215,210,1293,152
244,-1033,-165,148,1305,152
202,-979,-83,70,1301,171
175,-956,-19,-59,1326,200
125,-959,14,-197,1312,235
95,-957,51,-321,1285,243
72,-967,71,-445,1306,206
49,-1001,67,-544,1338,153
62,-1048,64,-624,1346,131
87,-1093,58,-696,1278,198
21,-1141,34,-764,1159,329
-122,-1195,-5,-834,1050,440
-251,-1237,-56,-893,953,493
-393,-1289,-80,-942,870,496
-534,-1379,-125,-1005,836,440
-623,-1478,-186,-1057,821,354
-643,-1534,-172,-1086,799,270
-618,-1529,-87,-1111,775,198
-627,-1516,-13,-1166,727,147
-704,-1539,-14,-1233,642,129
-790,-1543,-21,-1280,513,136
-831,-1525,-7,-1332,354,134
-837,-1543,-39,-1419,236,92
-788,-1638,-154,-1529,196,-5
-672,-1779,-312,-1607,137,-113
-548,-1934,-489,-1634,60,-176
-457,-2079,-640,-1618,-24,-188
-390,-2158,-730,-1544,-115,-189
-294,-2180,-767,-1450,-169,-209
-212,-2181,-726,-1365,-181,-249
-190,-2181,-655,-1289,-205,-280
-146,-2163,-561,-1231,-269,-284
-127,-2191,-520,-1214,-369,-207
-200,-2251,-540,-1225,-547,-26
-426,-2329,-613,-1222,-749,190
-724,-2410,-686,-1194,-932,337
-981,-2460,-735,-1137,-1027,333
-1127,-2528,-801,-1065,-1018,165
-1152,-2545,-780,-976,-964,-101
-1077,-2531,-724,-892,-929,-363
-944,-2505,-680,-844,-1002,-509
-823,-2450,-642,-842,-1179,-501
-742,-2411,-630,-898,-1367,-452
-533,-2439,-694,-1010,-1439,-526
-131,-2522,-793,-1115,-1393,-730
254,-2663,-989,-1149,-1316,-907
577,-2844,-1253,-1077,-1249,-904
836,-2953,-1339,-881,-1256,-750
864,-2949,-1221,-604,-1360,-473
660,-2895,-1053,-378,-1491,-146
346,-2825,-894,-246,-1600,86
80,-2831,-836,-222,-1634,140
-52,-2907,-901,-238,-1591,25
