ax,ay,az,gx,gy,gz
1215,-2407,-1489,1800,-825,-955
1213,-2374,-1468,1837,-754,-970
1285,-2309,-1395,1908,-667,-993
1330,-2239,-1293,1979,-530,-1012
1307,-2216,-1244,1981,-367,-986
1305,-2164,-1194,1971,-234,-935
1359,-2074,-1096,1935,-153,-838
1381,-2023,-1017,1883,-141,-698
1376,-1968,-963,1830,-124,-609
1410,-1879,-951,1790,-75,-548
1456,-1777,-910,1748,-54,-469
1403,-1714,-846,1713,26,-418
1356,-1628,-760,1669,170,-423
1392,-1520,-649,1575,315,-432
1385,-1476,-575,1450,487,-432
1344,-1434,-560,1345,637,-422
1310,-1332,-533,1258,742,-387
1233,-1271,-501,1154,827,-323
1164,-1245,-473,1068,867,-277
1137,-1167,-434,1027,867,-214
1066,-1062,-343,976,845,-95
999,-964,-201,861,848,28
953,-862,-65,696,885,107
899,-835,-37,501,900,179
852,-834,-26,350,939,224
881,-784,15,226,1007,219
867,-825,-28,85,1064,232
846,-903,-174,4,1215,186
898,-907,-238,4,1406,133
838,-874,-222,18,1473,199
708,-854,-210,7,1430,304
652,-809,-201,-33,1306,427
685,-778,-177,-90,1151,556
773,-813,-208,-158,1123,642
696,-901,-284,-179,1111,713
536,-936,-305,-121,1127,730
580,-902,-229,-86,1210,694
640,-872,-123,-119,1341,737
559,-861,1,-195,1392,879
382,-877,80,-275,1292,1015
210,-851,139,-337,1135,1097
72,-797,215,-378,912,1152
-35,-744,270,-409,805,1119
-40,-738,239,-483,850,1001
86,-745,167,-560,916,901
181,-810,113,-627,1055,849
41,-909,21,-684,1191,848
-149,-973,-46,-687,1255,816
-182,-962,-30,-670,1300,731
-194,-918,33,-636,1310,698
-307,-940,85,-605,1321,684
-447,-936,110,-571,1263,653
-532,-886,171,-521,1126,599
-544,-849,278,-522,1005,529
-440,-808,339,-610,987,499
-401,-796,331,-761,1019,494
-537,-904,265,-961,1165,508
-698,-1014,121,-1137,1365,528
-889,-1073,30,-1199,1478,607
-1121,-1175,33,-1211,1466,649
-1280,-1231,-22,-1266,1414,593
-1345,-1347,-134,-1340,1349,544
-1401,-1487,-220,-1379,1221,511
-1429,-1549,-249,-1368,1143,417
-1424,-1594,-261,-1338,1184,231
-1408,-1678,-310,-1349,1316,7
-1440,-1734,-348,-1380,1391,-133
-1523,-1815,-247,-1421,1324,-164
-1605,-1944,-241,-1485,1169,-160
-1679,-2041,-367,-1461,967,-124
-1740,-2133,-451,-1360,770,-90
-1693,-2214,-561,-1344,557,-75
-1539,-2311,-741,-1352,371,-55
-1526,-2440,-847,-1246,333,1
-1654,-2560,-846,-1149,289,28
-1709,-2578,-806,-1065,181,-31
-1697,-2632,-708,-973,151,-146
-1494,-2690,-764,-938,58,-231
-1319,-2631,-828,-875,-139,-147
-1350,-2566,-758,-791,-365,-17
-1281,-2506,-653,-789,-609,8
-1277,-2488,-614,-819,-692,2
-1437,-2533,-698,-845,-677,-47
-1511,-2607,-800,-834,-710,-168
-1472,-2664,-847,-806,-776,-319
-1346,-2775,-943,-826,-839,-452
-1213,-2891,-1080,-817,-864,-587
-1053,-2957,-1242,-762,-877,-701
-930,-3011,-1314,-680,-911,-734
-889,-3028,-1376,-598,-1002,-721
-836,-3058,-1455,-516,-1168,-728
-806,-3101,-1446,-406,-1380,-704
-813,-3096,-1409,-296,-1477,-746
-722,-3114,-1413,-232,-1496,-877
-558,-3162,-1485,-183,-1504,-1019
-474,-3245,-1617,-132,-1480,-1145
-379,-3248,-1696,-9,-1549,-1198
-213,-3132,-1594,163,-1677,-1222
-111,-3136,-1546,218,-1736,-1278
-34,-3157,-1597,233,-1725,-1341
31,-3144,-1625,335,-1740,-1389
117,-3154,-1636,421,-1786,-1423
252,-3178,-1686,479,-1823,-1456
456,-3153,-1756,551,-1812,-1489
617,-3178,-1811,637,-1762,-1501
750,-3172,-1843,756,-1710,-1533
907,-3126,-1806,895,-1676,-1537
1065,-3096,-1824,999,-1594,-1511
1218,-3080,-1875,1105,-1501,-1463
1266,-3072,-1905,1237,-1461,-1367
1383,-3078,-1967,1400,-1431,-1245
1540,-2980,-1863,1607,-1375,-1136
1565,-2810,-1693,1728,-1248,-1066
1481,-2711,-1576,1763,-1074,-988
1408,-2547,-1468,1807,-1032,-899
1403,-2432,-1326,1808,-1056,-805
1397,-2353,-1217,1793,-1029,-671
1261,-2227,-1132,1783,-1000,-503
1175,-2089,-1008,1747,-979,-385
1105,-1998,-937,1674,-879,-363
1012,-1967,-937,1606,-701,-424
1025,-1935,-945,1559,-526,-532
1177,-1930,-985,1524,-369,-624
1262,-1926,-1023,1543,-243,-669
1362,-1852,-992,1553,-124,-689
1417,-1806,-891,1506,12,-619
1445,-1741,-819,1451,125,-511
1397,-1654,-728,1405,251,-479
1297,-1617,-657,1346,422,-511
1255,-1629,-594,1280,616,-559
1235,-1573,-527,1217,747,-568
1179,-1511,-399,1158,845,-562
1205,-1512,-382,1049,960,-533
1208,-1497,-454,969,1021,-445
1109,-1474,-476,947,1081,-365
1146,-1423,-459,909,1159,-305
1116,-1362,-400,880,1191,-195
979,-1284,-291,833,1203,-59
876,-1182,-185,737,1175,49
769,-1151,-113,599,1132,158
637,-1180,-198,447,1154,221
483,-1207,-317,368,1173,256
374,-1206,-390,348,1169,285
293,-1238,-384,348,1169,308
247,-1209,-307,343,1171,301
261,-1192,-293,320,1233,237
336,-1106,-286,310,1376,144
316,-1050,-232,284,1486,111
246,-994,-139,230,1476,179
210,-919,17,149,1385,266
194,-925,88,47,1297,348
125,-905,118,-32,1219,448
48,-875,107,-110,1237,497
-24,-897,58,-182,1273,519
-37,-953,-9,-209,1288,517
-74,-945,-2,-182,1334,490
-183,-898,139,-188,1355,491
-265,-871,257,-266,1348,435
-246,-935,301,-338,1348,358
-231,-936,307,-372,1387,312
-289,-949,332,-436,1414,278
-288,-1002,350,-504,1393,260
-254,-1048,318,-550,1363,266
-255,-1080,289,-569,1303,298
-307,-1087,269,-590,1233,339
-402,-1148,225,-619,1177,355
-424,-1185,243,-613,1147,310
-438,-1140,293,-640,1165,256
-468,-1179,290,-720,1163,222
-506,-1212,304,-786,1103,218
-538,-1200,364,-852,1027,246
-599,-1210,438,-943,961,260
-687,-1256,442,-1046,926,233
-739,-1296,383,-1115,855,201
-776,-1324,328,-1144,804,179
-775,-1332,299,-1192,778,148
-754,-1349,239,-1262,731,141
-780,-1466,152,-1310,702,139
-861,-1513,100,-1329,647,141
-944,-1621,106,-1337,549,139
-922,-1664,171,-1331,448,96
-959,-1669,157,-1366,403,35
-1012,-1705,144,-1424,379,-39
-962,-1683,135,-1493,397,-123
-997,-1730,21,-1584,465,-222
-1086,-1881,-160,-1661,461,-298
-1093,-2002,-267,-1663,358,-369
-1013,-2122,-322,-1620,241,-435
-954,-2221,-380,-1557,109,-424
-987,-2224,-373,-1501,-51,-342
-939,-2281,-363,-1484,-176,-309
-829,-2287,-365,-1470,-279,-315
-845,-2346,-470,-1510,-333,-313
-905,-2508,-612,-1521,-412,-299
-887,-2565,-682,-1471,-536,-308
-911,-2611,-701,-1420,-582,-328
-912,-2708,-754,-1369,-626,-345
-844,-2803,-862,-1284,-757,-329
-786,-2804,-898,-1156,-936,-245
-771,-2746,-814,-1037,-1102,-181
-842,-2713,-706,-987,-1163,-224
-886,-2715,-671,-994,-1192,-318
-797,-2774,-745,-1011,-1222,-458
-649,-2856,-923,-1031,-1200,-614
-607,-2973,-1096,-1025,-1185,-683
-594,-3003,-1133,-965,-1306,-681
-508,-3020,-1161,-899,-1412,-726
-436,-3087,-1281,-842,-1433,-819
-354,-3132,-1440,-764,-1490,-875
-351,-3147,-1498,-624,-1539,-909
-350,-3161,-1493,-489,-1566,-970
-231,-3140,-1490,-387,-1619,-1047
-150,-3102,-1480,-291,-1640,-1124
-81,-3081,-1540,-225,-1634,-1233
17,-3062,-1598,-148,-1667,-1309
138,-2983,-1569,-52,-1708,-1354
318,-2996,-1669,13,-1668,-1431
547,-3029,-1798,146,-1625,-1473
716,-3013,-1839,328,-1579,-1430
766,-3006,-1845,462,-1541,-1317
815,-2951,-1779,559,-1565,-1183
847,-2886,-1714,634,-1579,-1100
843,-2864,-1683,702,-1553,-1078
862,-2825,-1671,773,-1491,-1093
868,-2807,-1682,821,-1397,-1113
819,-2804,-1704,876,-1336,-1091
844,-2738,-1660,976,-1314,-1078
983,-2670,-1639,1056,-1272,-1099
1017,-2642,-1662,1129,-1237,-1060
1015,-2614,-1667,1223,-1227,-989
1107,-2514,-1561,1310,-1241,-932
1100,-2422,-1438,1333,-1138,-891
1134,-2450,-1395,1317,-1005,-905
1225,-2431,-1345,1326,-941,-903
1307,-2398,-1311,1303,-842,-857
1342,-2408,-1386,1266,-710,-789
1359,-2389,-1460,1280,-604,-697
1291,-2331,-1395,1335,-584,-581
1208,-2245,-1306,1341,-506,-539
1129,-2172,-1294,1315,-388,-561
1078,-2112,-1307,1311,-277,-598
1127,-2023,-1273,1339,-179,-658
1200,-1912,-1199,1349,-69,-682
1196,-1821,-1108,1330,-13,-617
1135,-1733,-988,1306,52,-597
1123,-1641,-916,1246,222,-700
1154,-1621,-942,1159,451,-834
1226,-1600,-980,1134,646,-911
1294,-1529,-944,1144,758,-881
1307,-1444,-896,1138,787,-723
1293,-1345,-773,1106,683,-469
1226,-1272,-730,1041,562,-239
1113,-1256,-753,973,532,-92
1013,-1184,-736,922,599,-52
944,-1133,-724,850,704,-49
962,-1126,-743,781,772,-26
1041,-1065,-727,753,795,42
967,-1011,-666,739,791,171
854,-957,-587,695,847,236
798,-896,-506,651,853,259
769,-916,-532,558,938,228
787,-1048,-669,486,1094,182
792,-1080,-708,528,1192,149
815,-1037,-664,574,1234,176
785,-993,-547,590,1227,262
741,-984,-428,573,1213,329
748,-989,-375,526,1206,388
739,-991,-376,460,1208,445
733,-1022,-383,425,1238,483
734,-1004,-362,429,1257,514
702,-976,-261,415,1259,591
593,-963,-167,373,1278,652
503,-993,-133,311,1320,654
472,-1016,-95,256,1361,634
418,-1023,-61,205,1400,637
389,-1035,-42,156,1399,660
402,-977,18,119,1327,722
329,-938,111,67,1269,792
239,-951,127,-19,1254,829
222,-930,123,-79,1259,835
107,-941,139,-129,1311,824
-45,-1008,157,-184,1372,777
-86,-1027,216,-228,1415,678
-62,-1015,247,-299,1438,622
-92,-1001,264,-377,1452,625
-207,-1006,270,-464,1462,627
-353,-1007,263,-544,1447,611
-373,-1060,193,-616,1452,553
-304,-1102,153,-651,1401,542
-338,-1164,173,-680,1352,602
-417,-1195,244,-710,1299,652
-476,-1161,313,-745,1303,608
-534,-1193,292,-818,1387,508
-624,-1254,269,-879,1443,437
-745,-1265,299,-938,1382,426
-772,-1268,332,-1014,1253,418
-718,-1263,331,-1109,1138,411
-802,-1336,239,-1218,1085,432
-957,-1362,127,-1262,959,453
-1032,-1354,74,-1275,853,434
-1049,-1447,71,-1318,811,413
-1080,-1528,74,-1338,764,364
-1102,-1525,101,-1338,705,284
-984,-1516,131,-1393,696,194
-871,-1575,87,-1493,759,117
-942,-1704,-52,-1591,815,94
-1025,-1768,-86,-1634,761,125
-1031,-1814,-57,-1661,686,143
-1111,-1921,-117,-1696,627,143
-1215,-2025,-210,-1693,467,144
-1171,-2130,-310,-1673,260,187
-1167,-2177,-323,-1608,21,265
-1135,-2191,-392,-1561,-63,237
-1087,-2278,-515,-1571,-2,168
-1193,-2491,-702,-1543,10,110
-1288,-2641,-804,-1441,-9,30
-1258,-2624,-789,-1323,-49,-91
-1113,-2583,-773,-1256,-56,-207
-1106,-2583,-826,-1206,-147,-201
-1053,-2621,-852,-1131,-411,-75
-977,-2621,-847,-1053,-711,97
-979,-2656,-854,-1001,-906,194
-972,-2676,-812,-949,-983,209
-1085,-2603,-729,-923,-948,124
-1151,-2724,-794,-947,-858,-96
-1085,-2826,-948,-905,-802,-316
-954,-2846,-1086,-838,-778,-478
-860,-2911,-1190,-775,-799,-576
-792,-2950,-1191,-713,-872,-578
-644,-3004,-1215,-651,-992,-531
-503,-2990,-1222,-568,-1173,-451
-537,-3033,-1213,-497,-1279,-377
-575,-3046,-1195,-441,-1357,-390
-571,-3039,-1197,-401,-1408,-451
-610,-3065,-1235,-361,-1378,-584
-599,-3087,-1319,-334,-1336,-786
-561,-3120,-1391,-270,-1330,-973
-435,-3180,-1482,-162,-1304,-1170
-185,-3167,-1570,-36,-1308,-1346
18,-3170,-1568,56,-1303,-1427
110,-3196,-1591,162,-1357,-1442
265,-3162,-1619,282,-1448,-1464
364,-3111,-1602,384,-1497,-1460
416,-3031,-1548,469,-1537,-1432
504,-3002,-1559,547,-1544,-1438
612,-2999,-1699,632,-1515,-1463
669,-2981,-1747,754,-1498,-1431
760,-2919,-1708,877,-1487,-1382
893,-2853,-1652,965,-1456,-1336
1002,-2804,-1579,1032,-1418,-1246
1071,-2771,-1536,1093,-1404,-1107
1105,-2708,-1476,1144,-1439,-950
1086,-2661,-1393,1178,-1452,-815
1016,-2634,-1417,1206,-1380,-787
960,-2599,-1486,1249,-1257,-848
940,-2558,-1528,1309,-1092,-930
955,-2487,-1537,1360,-892,-1022
991,-2437,-1506,1406,-738,-1060
1039,-2353,-1408,1447,-617,-1072
1102,-2270,-1280,1446,-496,-1060
1126,-2195,-1198,1422,-435,-986
1163,-2126,-1146,1387,-419,-889
1202,-2058,-1097,1342,-382,-824
1192,-2016,-1079,1294,-283,-799
1126,-1995,-1055,1255,-143,-817
1083,-2026,-1038,1221,-63,-810
1068,-1997,-961,1224,-20,-797
1053,-1991,-943,1208,93,-826
1011,-2018,-971,1207,234,-868
1049,-1991,-940,1220,316,-877
1102,-1913,-876,1215,370,-854
1161,-1856,-841,1161,493,-848
1236,-1836,-831,1117,647,-837
1284,-1763,-810,1100,726,-747
1217,-1685,-734,1071,740,-581
1047,-1615,-629,1016,802,-499
1019,-1601,-631,924,923,-551
1083,-1577,-677,846,1009,-535
1039,-1570,-720,811,1035,-430
982,-1538,-727,804,984,-287
897,-1462,-656,810,916,-143
832,-1408,-589,777,917,-70
816,-1348,-543,722,946,-22
867,-1261,-445,688,922,47
923,-1164,-359,645,909,140
865,-1137,-319,576,965,209
822,-1129,-308,529,1020,249
793,-1090,-281,528,1009,325
720,-997,-216,507,1030,380
590,-964,-183,446,1136,361
568,-972,-206,381,1227,317
580,-914,-174,361,1205,354
523,-812,-72,326,1150,431
442,-785,-6,244,1149,458
450,-772,-33,145,1213,438
579,-788,-121,64,1240,467
546,-795,-168,35,1224,566
441,-794,-142,22,1204,676
359,-787,-58,21,1196,724
302,-773,11,-3,1219,726
237,-813,30,-36,1226,726
199,-825,52,-48,1220,727
153,-771,138,-63,1197,729
87,-778,228,-120,1190,705
50,-820,279,-195,1240,645
39,-841,290,-276,1324,583
52,-872,304,-347,1353,562
11,-884,332,-415,1354,576
-39,-877,373,-483,1325,611
-156,-873,395,-563,1280,654
-274,-934,376,-664,1259,677
-350,-967,347,-740,1189,681
-383,-990,317,-801,1142,678
-511,-1006,321,-856,1120,672
-701,-1043,328,-919,1109,630
-814,-1131,334,-978,1085,533
-834,-1242,308,-1014,1027,430
-790,-1232,306,-1012,904,358
-672,-1162,369,-1051,822,332
-613,-1116,424,-1176,819,352
-726,-1138,407,-1341,863,365
-869,-1245,322,-1508,870,360
-959,-1403,209,-1600,781,353
-1025,-1473,139,-1612,672,309
-1112,-1540,100,-1625,591,243
-1165,-1657,24,-1651,543,150
-1201,-1706,-21,-1656,447,58
-1181,-1756,-50,-1684,341,0
-1119,-1803,-78,-1734,240,-2
-1123,-1862,-105,-1783,121,48
-1087,-1931,-183,-1831,24,72
-1015,-2023,-294,-1854,-26,73
-943,-2125,-444,-1857,-24,54
-982,-2221,-535,-1818,-46,87
-1035,-2344,-571,-1733,-105,91
-1023,-2404,-545,-1617,-207,57
-1076,-2421,-527,-1531,-287,74
-1171,-2427,-575,-1476,-363,93
-1255,-2484,-609,-1419,-512,63
-1252,-2527,-684,-1384,-629,-9
-1179,-2571,-784,-1368,-715,-51
-1127,-2635,-825,-1323,-766,-98
-1184,-2730,-889,-1292,-780,-178
-1179,-2863,-1034,-1223,-797,-299
-1036,-2865,-1110,-1097,-879,-394
-864,-2815,-1025,-998,-943,-436
-733,-2816,-977,-998,-927,-456
-711,-2923,-1043,-1004,-910,-462
-686,-3001,-1123,-946,-943,-483
-625,-3018,-1181,-876,-1049,-481
-635,-3014,-1171,-804,-1122,-467
-681,-3071,-1268,-759,-1126,-533
-638,-3110,-1394,-695,-1166,-622
-631,-3140,-1432,-574,-1233,-690
-585,-3156,-1464,-461,-1299,-820
-425,-3134,-1505,-363,-1336,-974
-289,-3131,-1550,-271,-1347,-1086
-158,-3180,-1631,-161,-1415,-1165
-2,-3200,-1690,-24,-1521,-1186
104,-3144,-1639,105,-1615,-1146
221,-3083,-1548,178,-1647,-1159
305,-3105,-1550,202,-1562,-1256
356,-3118,-1627,247,-1502,-1338
434,-3135,-1719,306,-1552,-1345
640,-3151,-1818,417,-1605,-1336
854,-3145,-1865,558,-1635,-1255
822,-3165,-1902,682,-1625,-1132
876,-3120,-1947,805,-1645,-1060
966,-3040,-1947,943,-1655,-970
937,-2965,-1926,1053,-1567,-895
871,-2927,-1913,1156,-1471,-870
846,-2854,-1800,1272,-1359,-882
815,-2786,-1682,1354,-1209,-936
820,-2673,-1613,1402,-1107,-989
910,-2586,-1594,1415,-1034,-995
1007,-2502,-1574,1439,-969,-950
1015,-2445,-1544,1468,-871,-901
1005,-2370,-1495,1488,-796,-842
1014,-2289,-1413,1513,-789,-763
1038,-2211,-1346,1521,-736,-736
1020,-2126,-1293,1501,-638,-745
1016,-2085,-1243,1445,-497,-763
1047,-2071,-1198,1379,-379,-760
1036,-2020,-1123,1341,-306,-724
1010,-2010,-1098,1285,-232,-687
1000,-2018,-1123,1260,-195,-657
1028,-1954,-1081,1259,-83,-677
1012,-1932,-1032,1229,102,-697
922,-1905,-936,1203,217,-709
924,-1871,-842,1140,323,-759
992,-1871,-843,1067,452,-827
1020,-1919,-938,1026,624,-903
1020,-1928,-1001,1047,703,-894
1037,-1801,-891,1086,672,-809
1050,-1724,-784,1048,710,-755
1112,-1704,-799,992,751,-697
1137,-1655,-815,974,754,-575
1094,-1586,-751,962,785,-436
1017,-1500,-658,931,875,-359
972,-1376,-550,878,939,-335
995,-1295,-472,775,1001,-297
938,-1250,-432,651,1033,-202
828,-1220,-381,550,1080,-145
790,-1171,-366,478,1175,-173
851,-1151,-439,380,1280,-170
900,-1194,-608,325,1290,-26
891,-1195,-670,388,1216,191
779,-1113,-595,483,1102,398
618,-1021,-453,537,1030,514
557,-932,-317,536,1088,486
451,-867,-195,469,1233,394
421,-869,-172,335,1408,271
453,-877,-157,230,1507,236
507,-861,-127,180,1509,268
525,-835,-102,134,1505,323
545,-846,-148,78,1477,428
553,-847,-190,62,1356,602
445,-873,-171,70,1255,758
293,-935,-134,81,1216,826
237,-955,-100,87,1233,808
234,-935,-44,80,1290,763
194,-939,-2,42,1398,703
137,-951,78,-13,1455,691
101,-923,158,-66,1445,692
47,-939,175,-150,1488,680
-39,-949,198,-216,1481,702
-134,-912,221,-265,1427,711
-217,-938,204,-326,1373,713
-247,-964,220,-366,1278,749
-246,-889,298,-403,1162,809
-329,-899,338,-487,1122,830
-467,-943,369,-557,1123,821
-508,-935,441,-608,1102,783
-525,-968,488,-689,1115,719
-666,-1019,502,-773,1166,652
-760,-1077,462,-856,1222,550
-806,-1087,409,-916,1211,467
-856,-1124,344,-969,1154,422
-868,-1150,304,-1002,1045,411
-888,-1218,307,-1045,939,424
-850,-1245,285,-1095,837,452
-836,-1255,324,-1153,792,480
-916,-1269,373,-1271,798,487
-1049,-1331,374,-1408,811,449
-1149,-1443,307,-1529,838,348
-1184,-1547,191,-1615,844,204
-1115,-1609,34,-1668,866,75
-1169,-1754,-74,-1679,900,-24
-1220,-1803,-88,-1646,824,-76
-1218,-1798,-86,-1620,696,-71
-1096,-1860,-158,-1620,567,-29
-1008,-1872,-209,-1605,378,79
-1049,-1919,-199,-1593,208,206
-1208,-1986,-211,-1597,88,285
-1239,-2020,-276,-1590,22,231
-1247,-2133,-410,-1598,28,58
-1176,-2353,-594,-1589,61,-114
-1155,-2406,-715,-1495,7,-175
-1059,-2403,-729,-1412,-52,-216
-1122,-2489,-751,-1363,-166,-231
-1079,-2578,-852,-1328,-271,-289
-1040,-2609,-877,-1265,-383,-291
-1025,-2672,-854,-1221,-531,-269
-971,-2720,-922,-1184,-689,-277
-919,-2777,-1029,-1138,-814,-270
-889,-2857,-1067,-1056,-924,-261
-807,-2894,-1112,-984,-1015,-288
-708,-2936,-1151,-920,-1049,-318
-664,-2969,-1161,-845,-1066,-349
-604,-3019,-1255,-770,-1125,-369
-571,-3061,-1306,-665,-1214,-366
-616,-3112,-1297,-569,-1255,-412
-568,-3150,-1394,-490,-1240,-557
-425,-3157,-1463,-397,-1263,-668
-404,-3140,-1384,-295,-1360,-703
-357,-3163,-1409,-265,-1369,-812
-246,-3209,-1495,-218,-1357,-951
-128,-3243,-1532,-144,-1383,-1036
34,-3265,-1595,-41,-1400,-1092
207,-3203,-1579,101,-1436,-1110
256,-3152,-1554,219,-1438,-1092
251,-3092,-1511,306,-1463,-1080
263,-3023,-1478,372,-1517,-1096
310,-2960,-1453,410,-1528,-1136
384,-2900,-1395,439,-1568,-1162
499,-2863,-1371,458,-1584,-1195
657,-2900,-1454,493,-1515,-1240
772,-2924,-1538,609,-1449,-1229
902,-2893,-1573,754,-1383,-1182
1030,-2869,-1556,854,-1336,-1094
1095,-2861,-1510,945,-1318,-962
1139,-2837,-1475,1040,-1294,-846
1128,-2807,-1479,1117,-1252,-763
1099,-2744,-1456,1190,-1184,-704
991,-2658,-1401,1225,-1107,-651
878,-2584,-1358,1227,-1009,-634
873,-2520,-1326,1239,-916,-658
835,-2443,-1266,1271,-816,-661
813,-2340,-1194,1290,-758,-665
854,-2286,-1181,1280,-689,-672
932,-2276,-1230,1299,-603,-643
987,-2178,-1107,1337,-581,-550
967,-2122,-951,1308,-514,-470
958,-2084,-931,1268,-407,-484
969,-2078,-906,1222,-251,-522
994,-2096,-870,1171,-98,-549
1017,-2037,-849,1143,85,-629
959,-2038,-875,1092,244,-684
969,-2004,-882,1079,269,-671
1045,-1928,-830,1082,298,-658
1106,-1904,-791,1052,375,-629
1188,-1887,-767,1008,393,-530
1194,-1841,-707,983,407,-414
1148,-1839,-743,943,538,-392
1124,-1833,-807,916,730,-394
1112,-1806,-776,912,782,-280
1066,-1770,-727,903,768,-129
966,-1733,-681,887,798,-30
936,-1689,-657,848,844,23
963,-1689,-675,785,865,123
898,-1657,-627,760,779,316
827,-1596,-572,725,645,482
744,-1579,-531,691,591,554
617,-1550,-514,658,697,522
493,-1496,-493,625,869,415
455,-1453,-430,578,1049,279
428,-1441,-397,538,1147,184
463,-1398,-403,502,1188,145
521,-1380,-405,449,1157,214
531,-1381,-399,414,1008,386
440,-1336,-353,422,838,550
331,-1298,-311,378,777,628
184,-1299,-288,313,733,636
171,-1273,-265,261,702,576
241,-1247,-219,185,693,531
291,-1245,-229,109,684,536
385,-1228,-260,49,682,567
443,-1293,-302,22,676,675
372,-1245,-284,77,692,783
186,-1182,-230,121,729,810
113,-1163,-248,111,815,765
141,-1115,-235,124,867,739
120,-1019,-177,146,892,737
-21,-964,-80,134,942,743
-71,-937,-34,90,1004,730
-117,-914,44,53,1052,716
-148,-935,134,7,1070,716
-96,-978,144,-29,1085,680
-106,-1014,129,-35,1120,626
-249,-998,153,-46,1188,562
-335,-1048,150,-90,1177,508
-339,-1093,140,-116,1088,499
-390,-1114,157,-130,993,515
-433,-1176,178,-151,924,503
-408,-1136,232,-130,868,467
-402,-1123,295,-158,844,454
-455,-1133,329,-217,846,457
-534,-1086,390,-259,802,449
-614,-1055,472,-333,753,444
-709,-1105,543,-439,710,450
-777,-1157,543,-546,730,402
-843,-1188,499,-645,808,308
-889,-1239,400,-724,896,198
-945,-1306,360,-776,947,109
-968,-1321,347,-820,933,24
-971,-1334,336,-877,946,-79
-947,-1399,269,-957,892,-127
-936,-1448,254,-995,787,-144
-955,-1512,253,-1051,709,-150
-1078,-1529,229,-1100,672,-210
-1174,-1509,261,-1164,732,-368
-1196,-1579,246,-1297,797,-518
-1152,-1721,165,-1410,826,-603
-1091,-1811,25,-1441,737,-598
-1066,-1808,-24,-1392,500,-514
-1043,-1789,-10,-1384,167,-370
-998,-1856,-86,-1365,-164,-190
-1009,-1903,-168,-1286,-379,-65
-1032,-1964,-238,-1265,-409,-88
-1045,-2052,-290,-1291,-303,-205
-1090,-2174,-329,-1306,-188,-320
-1103,-2332,-441,-1310,-125,-417
-1036,-2421,-578,-1254,-149,-476
-958,-2427,-602,-1164,-232,-464
-896,-2501,-647,-1096,-327,-392
-814,-2581,-705,-1011,-500,-262
-767,-2567,-654,-900,-678,-128
-710,-2527,-629,-867,-756,-34
-636,-2522,-605,-865,-815,80
-592,-2512,-584,-858,-770,153
-724,-2616,-649,-897,-600,159
-959,-2769,-746,-905,-494,124
-1052,-2887,-816,-833,-585,59
-982,-2939,-854,-704,-749,-39
-795,-2917,-872,-608,-873,-121
-735,-2924,-893,-557,-900,-141
-700,-2985,-909,-538,-903,-160
-536,-2989,-970,-507,-956,-183
-453,-2940,-950,-467,-1011,-192
-587,-3028,-929,-492,-1000,-261
-699,-3146,-975,-489,-987,-362
-617,-3132,-977,-402,-1089,-490
-474,-3158,-1020,-343,-1168,-637
-309,-3170,-1158,-330,-1195,-749
-191,-3174,-1227,-281,-1259,-757
-64,-3166,-1276,-219,-1346,-708
45,-3154,-1337,-140,-1444,-642
46,-3149,-1311,-31,-1554,-592
21,-3125,-1245,91,-1612,-595
10,-3097,-1241,187,-1540,-695
8,-3031,-1225,294,-1455,-813
15,-3027,-1248,349,-1343,-971
111,-3015,-1346,368,-1164,-1161
208,-3024,-1520,392,-960,-1345
370,-3037,-1648,470,-790,-1469
543,-3073,-1744,586,-703,-1489
731,-3110,-1835,741,-722,-1397
863,-2998,-1812,961,-828,-1200
937,-2835,-1631,1121,-998,-954
1023,-2721,-1466,1174,-1082,-758
995,-2656,-1416,1223,-1042,-637
929,-2573,-1385,1288,-995,-548
854,-2462,-1310,1364,-993,-463
830,-2365,-1240,1410,-980,-421
752,-2308,-1233,1417,-921,-413
697,-2271,-1170,1413,-802,-457
658,-2233,-1131,1376,-641,-504
656,-2192,-1032,1359,-526,-556
689,-2102,-901,1341,-470,-594
732,-2084,-847,1275,-391,-617
772,-2112,-833,1215,-320,-641
816,-2091,-784,1176,-261,-667
896,-2058,-695,1127,-207,-686
979,-2063,-666,1032,-152,-690
972,-2077,-731,971,-41,-691
982,-2093,-816,963,96,-705
1040,-2133,-883,986,192,-688
1036,-2073,-842,1056,265,-651
1014,-1989,-718,1061,361,-602
1023,-1963,-594,1010,411,-542
1035,-1967,-542,983,471,-532
1027,-1937,-524,966,642,-556
1046,-1890,-506,928,815,-566
1032,-1861,-503,874,952,-547
1021,-1798,-469,832,1014,-500
983,-1745,-398,771,1023,-417
954,-1739,-432,670,1045,-295
966,-1700,-510,633,1022,-167
999,-1678,-564,651,996,-38
890,-1620,-558,716,932,112
771,-1512,-462,724,932,183
727,-1476,-386,683,1011,183
717,-1419,-369,652,1165,125
695,-1373,-342,615,1240,123
610,-1303,-260,572,1259,163
581,-1276,-221,490,1209,245
584,-1237,-139,431,1056,377
531,-1196,-76,354,1003,464
506,-1225,-114,270,1029,489
565,-1247,-206,254,1033,495
605,-1231,-216,272,1140,494
540,-1209,-158,269,1244,524
485,-1231,-154,240,1275,567
496,-1208,-167,250,1249,600
468,-1150,-127,251,1264,644
377,-1130,-114,221,1285,707
272,-1077,-116,206,1267,757
163,-996,-48,199,1225,787
54,-940,57,153,1240,783
-19,-956,113,72,1322,734
-118,-993,116,12,1410,660
-156,-1029,97,-37,1461,588
-193,-1066,94,-80,1459,557
-215,-1074,106,-104,1380,572
-204,-1069,121,-129,1297,582
-239,-1075,134,-172,1258,585
-289,-1082,187,-215,1212,579
-301,-1097,173,-268,1215,532
-318,-1126,124,-315,1234,496
-325,-1128,132,-326,1202,504
-335,-1114,198,-335,1172,527
-405,-1136,247,-377,1189,532
-494,-1166,265,-422,1204,543
-620,-1167,272,-464,1209,544
-726,-1163,331,-501,1208,488
-819,-1148,370,-561,1184,388
-841,-1201,348,-659,1172,290
-882,-1207,358,-701,1178,225
-947,-1173,371,-760,1160,189
-942,-1210,355,-859,1113,154
-973,-1255,324,-925,1072,120
-1043,-1263,290,-975,1029,90
-1083,-1350,254,-1030,996,49
-1107,-1445,191,-1069,962,-22
-1058,-1489,192,-1088,948,-107
-1000,-1551,240,-1139,968,-175
-1043,-1569,219,-1199,974,-232
-1138,-1556,151,-1252,952,-265
-1175,-1542,57,-1303,849,-301
-1119,-1545,-103,-1380,638,-299
-1118,-1688,-245,-1437,414,-193
-1144,-1840,-332,-1417,208,-114
-1130,-1939,-343,-1330,50,-131
-1044,-1932,-297,-1238,-3,-213
-952,-1958,-286,-1232,106,-334
-907,-2055,-425,-1303,278,-451
-869,-2168,-600,-1307,295,-491
-795,-2252,-641,-1234,111,-387
-782,-2228,-525,-1150,-166,-182
-841,-2211,-345,-1106,-348,-32
-980,-2253,-317,-1121,-383,-34
-1004,-2325,-401,-1137,-430,-113
-950,-2380,-428,-1115,-503,-157
-932,-2452,-524,-1116,-482,-210
-915,-2619,-683,-1136,-382,-287
-892,-2730,-873,-1096,-271,-348
-856,-2844,-1062,-1013,-291,-364
-737,-2978,-1132,-901,-457,-290
-692,-2986,-993,-746,-653,-197
-747,-2948,-846,-654,-804,-116
-835,-2959,-753,-615,-958,-58
-739,-2975,-714,-615,-1079,-87
-660,-3005,-734,-626,-1133,-136
-618,-3073,-849,-661,-1093,-225
-542,-3126,-1022,-653,-1075,-302
-485,-3099,-1055,-559,-1136,-302
-487,-3064,-1031,-455,-1242,-262
-499,-3026,-1034,-352,-1299,-262
-520,-3022,-1058,-270,-1288,-303
-500,-2947,-1053,-188,-1294,-351
-526,-2936,-983,-135,-1467,-345
-533,-2918,-908,-74,-1609,-353
-496,-2892,-873,-46,-1598,-492
-332,-2894,-950,-64,-1470,-669
-278,-2946,-1037,-4,-1460,-764
-138,-2968,-1081,98,-1482,-864
26,-2956,-1077,196,-1504,-919
103,-2967,-1143,277,-1464,-953
234,-3013,-1228,361,-1455,-1024
367,-3006,-1277,464,-1451,-1059
387,-2969,-1266,576,-1484,-1012
449,-2917,-1225,668,-1518,-956
525,-2889,-1204,723,-1548,-889
563,-2846,-1148,787,-1598,-818
581,-2789,-1092,821,-1613,-745
576,-2748,-1084,856,-1639,-676
609,-2727,-1116,898,-1607,-673
605,-2703,-1157,961,-1504,-716
578,-2687,-1185,1026,-1349,-790
614,-2678,-1190,1123,-1219,-864
608,-2614,-1115,1238,-1139,-897
610,-2506,-1041,1288,-1081,-906
643,-2435,-999,1288,-1022,-901
677,-2412,-948,1288,-973,-897
712,-2342,-893,1293,-933,-885
747,-2305,-856,1274,-893,-839
766,-2267,-792,1274,-830,-825
775,-2241,-694,1260,-724,-840
819,-2203,-643,1222,-596,-884
897,-2188,-647,1169,-470,-903
919,-2235,-702,1110,-368,-877
928,-2263,-688,1089,-291,-851
920,-2242,-631,1091,-234,-855
928,-2220,-654,1070,-125,-898
922,-2191,-674,1063,-70,-908
933,-2150,-647,1080,-11,-925
967,-2093,-586,1088,119,-979
1025,-2033,-496,1070,266,-1028
1044,-1962,-437,1031,464,-1079
1063,-1937,-419,947,618,-1080
1134,-1888,-399,858,607,-954
1212,-1840,-373,768,524,-742
1248,-1826,-394,669,430,-476
1214,-1785,-400,594,289,-149
1098,-1773,-394,548,182,92
855,-1723,-347,526,218,155
689,-1707,-355,472,463,28
712,-1687,-377,424,650,-113
698,-1674,-360,406,825,-202
744,-1681,-465,376,981,-253
798,-1656,-491,404,905,-139
798,-1583,-454,457,823,18
806,-1518,-398,495,819,127
707,-1396,-240,548,817,197
672,-1334,-114,517,955,119
731,-1321,-77,445,1102,58
709,-1263,-10,391,1153,90
706,-1238,38,315,1150,159
756,-1205,-12,229,1120,265
696,-1199,-50,150,1009,455
655,-1209,-95,88,861,636
632,-1245,-256,67,758,766
519,-1284,-414,121,755,864
428,-1272,-408,202,895,859
320,-1264,-321,263,1056,800
313,-1256,-191,284,1209,718
307,-1225,-77,254,1328,680
273,-1195,-3,208,1333,690
291,-1188,54,148,1235,752
341,-1193,126,74,1149,875
245,-1164,128,-21,1119,992
123,-1163,109,-86,1111,1016
39,-1190,28,-146,1163,989
-72,-1228,-53,-150,1219,945
-133,-1238,-75,-104,1296,852
-211,-1247,-55,-49,1380,747
-272,-1223,28,-5,1454,655
-260,-1182,131,-9,1495,569
-140,-1065,258,-59,1521,536
-162,-1045,368,-177,1588,529
-289,-1100,387,-317,1595,530
-351,-1112,391,-391,1455,610
-394,-1109,412,-423,1297,725
-503,-1096,430,-447,1175,792
-631,-1090,435,-481,1136,766
-745,-1085,368,-532,1163,680
-842,-1107,309,-571,1164,595
-906,-1082,298,-606,1132,505
-926,-1105,328,-667,1126,421
-907,-1126,369,-751,1151,327
-936,-1208,316,-848,1226,250
-1022,-1287,252,-930,1229,226
-1034,-1332,193,-986,1123,222
-1048,-1343,131,-1029,965,277
-1122,-1371,87,-1054,835,319
-1227,-1407,24,-1089,744,321
-1312,-1507,-24,-1118,680,317
-1351,-1558,0,-1098,618,267
-1339,-1532,82,-1078,592,164
-1241,-1522,151,-1117,622,51
-1178,-1545,153,-1186,687,-59
-1167,-1639,89,-1260,728,-145
-1145,-1712,48,-1288,627,-156
-1122,-1742,2,-1296,463,-140
-1121,-1764,-74,-1315,329,-132
-1139,-1798,-187,-1339,181,-81
-1167,-1923,-301,-1328,111,-68
-1241,-2006,-340,-1281,88,-114
-1254,-2035,-336,-1243,77,-201
-1169,-2094,-309,-1230,75,-288
-1070,-2137,-330,-1236,70,-325
-1051,-2145,-349,-1221,20,-294
-1092,-2178,-325,-1211,-72,-231
-1099,-2233,-381,-1212,-197,-197
-996,-2302,-479,-1199,-359,-131
-1006,-2392,-526,-1164,-519,8
-1111,-2447,-475,-1114,-631,91
-1132,-2406,-400,-1091,-737,95
-1151,-2427,-397,-1095,-785,76
-1219,-2485,-463,-1124,-794,29
-1234,-2572,-562,-1151,-800,-17
-1223,-2706,-716,-1161,-815,-103
-1117,-2879,-883,-1123,-839,-237
-1009,-2981,-972,-1005,-841,-352
-954,-2999,-920,-880,-914,-396
-970,-2984,-831,-807,-999,-413
-962,-3014,-821,-783,-1130,-408
-895,-2989,-843,-748,-1351,-368
-921,-2992,-886,-734,-1494,-347
-984,-3038,-949,-725,-1566,-429
-860,-3025,-1044,-731,-1558,-628
-583,-2975,-1176,-729,-1472,-803
-468,-3203,-1373,-708,-1351,-898
-368,-3217,-1524,-529,-1328,-931
-283,-3170,-1525,-303,-1472,-837
-231,-3116,-1399,-109,-1711,-689
-206,-3001,-1263,24,-1921,-566
-259,-2897,-1165,90,-2050,-483
-322,-2832,-1070,122,-2082,-518
-286,-2795,-1068,90,-2029,-665
-235,-2765,-1095,71,-1925,-841
-159,-2755,-1114,58,-1786,-1020
8,-2859,-1304,35,-1588,-1173
160,-2944,-1552,117,-1448,-1232
265,-2963,-1642,295,-1487,-1166
353,-2919,-1614,470,-1588,-1040
432,-2873,-1522,593,-1716,-900
547,-2815,-1444,657,-1805,-797
591,-2795,-1442,701,-1826,-702
543,-2735,-1407,780,-1839,-627
447,-2659,-1331,830,-1775,-628
394,-2598,-1352,837,-1596,-718
346,-2560,-1403,875,-1399,-831
352,-2511,-1412,927,-1274,-926
398,-2433,-1356,980,-1229,-956
