ax,ay,az,gx,gy,gz
627,-1884,-35,1391,1242,6
547,-1773,219,1333,1126,34
440,-1703,325,1186,1182,54
250,-1669,312,1053,1213,77
184,-1633,182,966,1054,106
296,-1596,68,926,746,161
376,-1544,-59,934,466,229
349,-1464,-11,965,389,300
220,-1397,105,916,441,297
115,-1353,218,789,607,175
169,-1286,299,623,849,3
259,-1263,293,458,1143,-126
284,-1284,176,353,1277,-104
287,-1249,84,332,1083,81
210,-1173,112,365,660,339
144,-1093,133,372,411,478
81,-1099,151,361,304,565
-80,-1128,218,341,186,599
-127,-1120,239,279,278,478
-163,-1144,195,161,497,308
-248,-1226,132,62,637,188
-235,-1262,126,26,673,72
-92,-1226,209,11,674,-21
5,-1200,316,-49,718,-47
55,-1223,386,-146,763,-40
214,-1266,353,-230,731,-3
126,-1244,353,-298,759,97
-46,-1305,294,-363,879,129
-102,-1305,162,-372,876,97
-63,-1301,36,-340,736,93
22,-1319,-67,-296,510,151
-15,-1232,78,-245,341,225
-38,-1182,253,-302,239,257
-26,-1218,281,-412,216,254
-39,-1251,299,-494,255,251
-164,-1257,360,-551,237,297
-271,-1276,343,-622,115,367
-289,-1310,238,-690,25,355
-374,-1318,244,-706,0,299
-454,-1275,293,-723,59,204
-494,-1294,281,-789,165,101
-555,-1356,282,-797,207,79
-554,-1361,304,-803,190,59
-489,-1323,296,-869,243,32
-478,-1365,249,-991,278,93
-539,-1547,93,-1137,210,185
-578,-1692,-47,-1165,57,260
-626,-1716,-37,-1096,-240,350
-682,-1676,35,-1038,-518,446
-877,-1668,148,-1024,-611,504
-1031,-1725,175,-1091,-619,439
-1049,-1857,39,-1162,-566,291
-1063,-1970,-74,-1143,-478,147
-928,-2028,-133,-1146,-426,6
-737,-2140,-241,-1195,-365,-80
-781,-2266,-311,-1197,-305,-65
-804,-2345,-357,-1123,-348,-39
-724,-2414,-334,-1037,-472,-41
-581,-2467,-313,-1018,-600,-42
-486,-2522,-332,-1021,-694,-3
-524,-2590,-332,-995,-854,90
-533,-2604,-362,-979,-1020,153
-559,-2656,-376,-989,-1204,198
-585,-2735,-432,-1001,-1303,179
-537,-2751,-486,-1006,-1258,69
-521,-2788,-552,-1028,-1282,-8
-555,-2860,-580,-1024,-1441,-31
-391,-2924,-668,-1013,-1555,-121
-213,-2984,-825,-1006,-1503,-200
-264,-3079,-892,-932,-1489,-165
-235,-3161,-865,-814,-1619,-175
-164,-3173,-800,-718,-1580,-269
-274,-3270,-716,-717,-1502,-345
-223,-3365,-796,-738,-1540,-463
-183,-3428,-838,-715,-1592,-555
-156,-3526,-960,-713,-1589,-657
-32,-3614,-1200,-694,-1581,-788
112,-3720,-1570,-606,-1637,-871
212,-3751,-1818,-349,-1745,-895
357,-3709,-1781,-4,-1752,-914
506,-3614,-1658,271,-1602,-935
574,-3527,-1554,459,-1392,-932
610,-3444,-1463,612,-1297,-899
661,-3332,-1410,730,-1334,-862
753,-3253,-1373,816,-1313,-845
812,-3185,-1346,894,-1196,-860
783,-3114,-1314,959,-1005,-892
775,-3051,-1285,1015,-868,-964
901,-2990,-1362,1088,-787,-1046
1093,-2875,-1396,1195,-789,-1057
1183,-2752,-1264,1303,-828,-969
1225,-2633,-1155,1362,-790,-878
1216,-2539,-1104,1395,-688,-820
1193,-2422,-1074,1423,-605,-771
1220,-2321,-999,1443,-573,-723
1143,-2255,-886,1441,-422,-705
1148,-2192,-889,1405,-193,-777
1289,-2147,-983,1398,56,-881
1354,-2068,-999,1437,255,-892
1417,-1981,-953,1477,373,-830
1506,-1853,-809,1525,433,-744
1468,-1741,-634,1528,517,-640
1420,-1638,-531,1458,577,-544
1407,-1572,-447,1352,578,-457
1322,-1521,-393,1234,677,-400
1296,-1495,-420,1122,765,-356
1320,-1458,-432,1063,837,-274
1264,-1410,-365,1029,889,-142
1164,-1391,-285,982,964,-28
1055,-1355,-310,913,1030,33
936,-1356,-358,830,1077,52
852,-1364,-382,786,1232,7
806,-1343,-408,786,1344,-38
795,-1327,-348,805,1347,-42
810,-1275,-197,804,1357,-44
856,-1206,-60,747,1445,-51
842,-1177,68,632,1565,-38
889,-1137,83,470,1650,0
933,-1114,-3,331,1678,83
881,-1110,-109,256,1648,226
745,-1129,-173,244,1583,365
663,-1124,-256,258,1594,416
524,-1097,-296,291,1683,419
414,-1027,-244,327,1784,391
371,-965,-127,321,1811,389
350,-913,-30,269,1780,442
288,-884,49,200,1691,549
136,-866,97,119,1570,662
-6,-885,149,28,1466,708
-69,-888,148,-52,1481,673
-146,-901,86,-121,1613,592
-216,-920,30,-157,1718,511
-213,-905,77,-163,1710,466
-188,-878,200,-186,1661,465
-192,-866,224,-259,1564,514
-236,-885,162,-325,1436,590
-318,-915,162,-369,1376,631
-408,-936,213,-434,1400,594
-489,-936,235,-521,1477,530
-518,-962,228,-594,1503,487
-551,-989,278,-649,1503,464
-611,-996,331,-710,1482,480
-726,-990,354,-784,1383,529
-871,-1003,332,-867,1279,563
-987,-1048,283,-947,1243,515
-1005,-1088,199,-1032,1290,408
-1025,-1149,147,-1084,1291,349
-1062,-1201,136,-1118,1237,333
-1149,-1240,135,-1152,1197,337
-1232,-1276,153,-1179,1092,356
-1326,-1310,218,-1222,992,361
-1433,-1362,262,-1299,916,343
-1487,-1412,202,-1387,789,338
-1512,-1456,133,-1457,691,335
-1624,-1544,78,-1514,633,324
-1700,-1662,-22,-1551,557,265
-1661,-1765,-84,-1554,464,181
-1656,-1867,-162,-1539,425,109
-1689,-2014,-246,-1504,417,28
-1654,-2090,-191,-1432,335,-66
-1557,-2116,-131,-1419,274,-135
-1482,-2166,-120,-1439,135,-107
-1454,-2185,-101,-1461,-144,10
-1572,-2289,-110,-1500,-389,163
-1704,-2476,-194,-1529,-596,243
-1749,-2620,-331,-1536,-724,183
-1806,-2797,-513,-1499,-675,41
-1749,-2883,-596,-1405,-694,-131
-1643,-2926,-629,-1322,-766,-275
-1630,-3030,-657,-1241,-803,-373
-1406,-3062,-707,-1167,-984,-470
-1126,-3032,-746,-1112,-1185,-471
-1212,-3080,-736,-1036,-1290,-365
-1304,-3142,-706,-967,-1411,-372
-1160,-3179,-811,-944,-1518,-524
-1071,-3234,-942,-910,-1450,-701
-907,-3293,-1003,-843,-1441,-865
-695,-3314,-1063,-749,-1512,-971
-618,-3379,-1148,-627,-1538,-987
-497,-3431,-1246,-469,-1601,-1008
-476,-3381,-1220,-267,-1630,-1013
-490,-3329,-1067,-135,-1791,-976
-392,-3326,-1071,-114,-1854,-1028
-300,-3330,-1240,-114,-1703,-1149
-217,-3342,-1379,-71,-1669,-1225
-33,-3341,-1514,18,-1674,-1323
181,-3371,-1658,191,-1570,-1405
405,-3286,-1682,354,-1590,-1400
494,-3239,-1616,543,-1546,-1359
603,-3132,-1477,708,-1502,-1338
843,-3057,-1450,787,-1498,-1327
1051,-3020,-1482,861,-1397,-1301
1135,-2980,-1473,975,-1285,-1235
1270,-2917,-1403,1091,-1284,-1157
1405,-2836,-1299,1177,-1235,-1085
1459,-2756,-1171,1228,-1128,-1001
1519,-2698,-1101,1252,-995,-939
1547,-2611,-1084,1274,-831,-903
1535,-2540,-1160,1314,-681,-833
1524,-2448,-1157,1384,-578,-754
1463,-2367,-1085,1440,-545,-673
1448,-2267,-1000,1479,-550,-600
1449,-2153,-911,1489,-481,-548
1432,-2078,-836,1460,-401,-488
1419,-2005,-779,1424,-331,-457
1388,-1947,-736,1384,-133,-466
1429,-1868,-685,1348,40,-482
1529,-1789,-656,1318,197,-458
1412,-1740,-604,1288,347,-367
1309,-1738,-585,1246,486,-324
1235,-1729,-614,1229,629,-294
1142,-1689,-610,1220,720,-238
1113,-1640,-557,1199,743,-194
1106,-1584,-501,1157,797,-154
1086,-1532,-477,1096,862,-87
1063,-1457,-437,1050,818,53
1030,-1366,-295,993,727,220
932,-1297,-188,888,692,348
690,-1320,-120,755,690,387
539,-1343,-189,617,892,233
623,-1321,-313,530,1152,35
731,-1299,-383,505,1269,-27
733,-1247,-413,531,1358,12
748,-1179,-324,583,1347,109
793,-1073,-124,596,1264,256
616,-1029,-42,524,1285,393
431,-1041,-22,423,1296,442
355,-1022,-9,338,1370,417
296,-1030,13,246,1398,395
269,-1020,-17,162,1483,367
272,-965,-8,107,1529,381
189,-929,19,46,1448,473
50,-943,-5,-29,1438,514
-23,-966,-69,-89,1477,483
-60,-987,-81,-93,1507,459
-48,-960,-36,-77,1535,445
-161,-931,30,-92,1502,468
-280,-934,78,-152,1466,480
-315,-927,61,-229,1447,466
-329,-912,22,-295,1421,474
-478,-947,-5,-356,1403,500
-616,-1005,-16,-395,1372,484
-646,-1011,20,-411,1308,423
-702,-1032,53,-437,1318,358
-816,-1047,100,-460,1368,275
-869,-1065,133,-501,1342,184
-844,-1108,143,-546,1292,97
-852,-1094,208,-586,1227,59
-871,-1112,243,-670,1139,54
-935,-1110,228,-767,1069,69
-996,-1178,241,-881,988,72
-1029,-1319,155,-979,930,56
-1090,-1335,93,-1003,844,9
-1106,-1327,113,-1025,807,-49
-1161,-1372,97,-1075,739,-74
-1216,-1354,51,-1125,613,-91
-1226,-1383,62,-1182,445,-93
-1275,-1484,88,-1249,306,-102
-1302,-1589,90,-1301,182,-140
-1371,-1648,84,-1341,154,-229
-1433,-1686,99,-1398,146,-354
-1418,-1765,68,-1501,169,-505
-1321,-1842,-91,-1609,226,-624
-1285,-2009,-276,-1649,100,-617
-1261,-2158,-401,-1611,-122,-559
-1295,-2238,-393,-1542,-260,-535
-1303,-2331,-389,-1515,-354,-572
-1270,-2484,-455,-1503,-477,-622
-1171,-2585,-519,-1447,-577,-670
-1100,-2674,-500,-1386,-683,-693
-1094,-2780,-506,-1355,-785,-699
-1042,-2898,-505,-1345,-895,-721
-1015,-3058,-608,-1336,-1013,-729
-895,-3166,-764,-1286,-1154,-764
-853,-3247,-884,-1186,-1143,-794
-850,-3301,-888,-1055,-1146,-810
-726,-3295,-915,-942,-1267,-826
-663,-3270,-925,-834,-1325,-819
-676,-3251,-822,-744,-1328,-834
-612,-3214,-811,-717,-1269,-922
-575,-3244,-923,-683,-1283,-1004
-506,-3261,-984,-586,-1444,-1045
-444,-3244,-988,-465,-1642,-1090
-360,-3221,-1011,-372,-1744,-1197
-152,-3196,-1100,-301,-1746,-1344
14,-3187,-1264,-193,-1707,-1431
130,-3149,-1281,-16,-1772,-1443
229,-3088,-1237,140,-1880,-1440
228,-3057,-1246,244,-1904,-1438
291,-3016,-1233,363,-1937,-1465
461,-2986,-1253,452,-1963,-1536
557,-2947,-1293,541,-1873,-1585
715,-2895,-1262,635,-1820,-1625
999,-2867,-1299,684,-1758,-1649
1168,-2857,-1388,756,-1636,-1604
1319,-2824,-1440,863,-1572,-1527
1448,-2809,-1473,977,-1549,-1413
1525,-2734,-1459,1114,-1478,-1286
1580,-2623,-1385,1213,-1464,-1159
1549,-2565,-1288,1263,-1435,-1044
1532,-2496,-1194,1291,-1313,-996
1593,-2411,-1177,1285,-1109,-1015
1645,-2358,-1143,1292,-955,-985
1758,-2270,-1050,1321,-874,-932
1824,-2198,-939,1307,-754,-870
1743,-2202,-993,1246,-597,-833
1680,-2216,-1164,1223,-450,-846
1725,-2162,-1250,1276,-342,-873
1751,-2124,-1301,1340,-204,-895
1791,-2061,-1255,1417,-31,-905
1919,-1937,-1086,1463,81,-889
1993,-1837,-923,1413,255,-850
2068,-1743,-881,1323,434,-772
2178,-1627,-898,1249,482,-604
2092,-1569,-916,1198,453,-338
1895,-1529,-843,1168,399,-129
1698,-1479,-750,1109,476,-78
1481,-1455,-737,1019,685,-165
1415,-1411,-734,941,924,-323
1461,-1348,-709,876,1114,-429
1530,-1265,-666,829,1213,-416
1651,-1165,-580,779,1124,-276
1708,-1069,-525,689,1030,-75
1620,-1043,-520,577,901,142
1508,-1034,-564,475,917,255
1472,-1010,-623,410,1030,294
1381,-1001,-638,405,1166,329
1242,-947,-564,412,1370,326
1113,-911,-419,385,1506,309
1075,-846,-313,324,1635,278
1086,-761,-219,250,1660,339
1030,-687,-123,149,1566,495
978,-667,-172,24,1473,665
814,-703,-248,-56,1434,823
579,-731,-302,-92,1413,908
406,-766,-367,-122,1449,865
326,-789,-440,-140,1562,757
247,-804,-427,-137,1634,681
240,-776,-372,-135,1654,636
188,-738,-309,-150,1656,634
84,-725,-228,-178,1629,666
74,-675,-127,-217,1547,692
3,-648,-39,-295,1451,744
-142,-684,21,-382,1365,775
-210,-711,13,-462,1280,775
-250,-756,6,-514,1184,787
-386,-810,46,-530,1159,797
-507,-824,123,-552,1110,757
-555,-837,185,-615,1099,652
-600,-881,203,-708,1170,539
-683,-932,210,-778,1172,469
-667,-945,221,-834,1094,415
-686,-960,268,-912,1007,398
-757,-1022,272,-1031,978,379
-820,-1107,206,-1142,960,357
-880,-1151,167,-1220,902,352
-927,-1235,146,-1298,780,355
-1002,-1298,119,-1371,701,316
-1096,-1380,50,-1448,691,247
-1115,-1467,-10,-1493,652,154
-1043,-1545,-76,-1528,618,70
-938,-1579,-61,-1541,552,54
-920,-1631,-77,-1558,372,144
-1075,-1732,-153,-1563,216,266
-1281,-1813,-68,-1554,53,319
-1376,-1883,6,-1615,-58,242
-1420,-2032,-165,-1731,-90,118
-1421,-2169,-384,-1772,-153,21
-1441,-2370,-504,-1736,-262,-24
-1418,-2544,-594,-1663,-453,-57
-1232,-2612,-665,-1576,-629,-117
-1171,-2708,-634,-1493,-719,-118
-1078,-2771,-637,-1456,-822,-125
-978,-2870,-765,-1444,-937,-96
-1059,-2996,-812,-1373,-1137,7
-1052,-3055,-766,-1294,-1328,13
-1078,-3148,-749,-1249,-1356,-63
-1065,-3258,-787,-1220,-1382,-188
-854,-3336,-954,-1204,-1438,-341
-741,-3442,-1138,-1118,-1453,-410
-611,-3496,-1250,-966,-1540,-437
-483,-3490,-1224,-796,-1649,-444
-394,-3498,-1187,-684,-1771,-462
-337,-3514,-1194,-622,-1786,-546
-267,-3550,-1294,-545,-1770,-649
-147,-3576,-1388,-423,-1786,-767
19,-3591,-1441,-298,-1740,-908
154,-3606,-1483,-174,-1629,-1040
307,-3609,-1554,-41,-1593,-1144
444,-3619,-1645,108,-1489,-1235
672,-3599,-1736,284,-1430,-1292
943,-3546,-1817,451,-1442,-1274
986,-3520,-1790,628,-1434,-1184
1073,-3461,-1748,771,-1424,-1158
1237,-3408,-1820,877,-1348,-1159
1297,-3333,-1868,1020,-1262,-1092
1280,-3209,-1813,1181,-1183,-1003
1245,-3082,-1759,1317,-1167,-918
1199,-2950,-1653,1433,-1257,-820
1101,-2836,-1537,1503,-1236,-779
1023,-2718,-1485,1548,-1136,-820
1058,-2612,-1481,1579,-982,-921
1147,-2510,-1477,1619,-790,-1001
1221,-2405,-1374,1680,-693,-1016
1305,-2277,-1231,1708,-628,-993
1381,-2170,-1166,1676,-552,-960
1445,-2116,-1157,1643,-474,-908
1564,-2050,-1156,1628,-405,-854
1633,-1972,-1142,1613,-231,-818
1561,-1931,-1117,1595,-83,-756
1582,-1872,-1115,1586,18,-724
1579,-1810,-1151,1580,131,-690
1494,-1772,-1148,1599,249,-678
1498,-1676,-1041,1646,368,-701
1536,-1569,-844,1660,408,-670
1468,-1484,-683,1621,503,-603
1422,-1416,-558,1544,592,-547
1449,-1371,-490,1445,650,-509
1458,-1321,-450,1345,787,-460
1461,-1292,-418,1260,830,-372
1386,-1268,-398,1170,889,-292
1338,-1238,-428,1074,1027,-257
1365,-1198,-472,1011,1088,-193
1374,-1126,-469,976,1138,-93
1349,-1046,-456,949,1234,20
1284,-967,-369,928,1242,164
1113,-933,-309,875,1245,282
925,-919,-279,817,1306,317
802,-892,-150,780,1369,294
796,-834,-28,700,1450,250
739,-841,3,583,1556,225
709,-863,3,490,1654,204
726,-843,43,419,1663,222
760,-811,94,335,1663,265
746,-769,126,247,1631,380
643,-751,170,156,1512,525
499,-777,123,26,1493,572
397,-813,-8,-87,1609,533
378,-828,-111,-131,1649,513
365,-814,-78,-135,1627,537
368,-818,-34,-166,1590,569
321,-824,2,-203,1574,621
159,-829,56,-250,1558,697
-27,-843,109,-310,1524,712
-107,-852,99,-390,1540,643
-129,-852,45,-466,1591,577
-201,-876,60,-500,1563,569
-280,-876,121,-540,1519,554
-376,-890,153,-620,1493,520
-419,-913,133,-708,1484,465
-470,-931,99,-774,1475,429
-524,-951,107,-821,1400,426
-509,-970,147,-873,1287,426
-520,-1008,145,-939,1199,455
-606,-1064,131,-996,1133,496
-742,-1111,153,-1054,1100,485
-861,-1177,184,-1120,1091,414
-924,-1204,221,-1190,1087,305
-956,-1234,226,-1295,1095,202
-969,-1291,113,-1411,1060,146
-969,-1370,40,-1481,961,123
-1029,-1448,0,-1516,815,147
-1036,-1487,-56,-1541,670,162
-1086,-1588,-116,-1559,517,208
-1174,-1699,-154,-1570,388,225
-1193,-1754,-158,-1567,325,156
-1299,-1780,-56,-1580,257,115
-1512,-1851,19,-1648,105,82
-1574,-1926,-26,-1740,9,-47
-1548,-2033,-79,-1811,7,-206
-1470,-2176,-240,-1869,-28,-326
-1358,-2315,-478,-1884,-138,-405
-1251,-2473,-564,-1828,-260,-444
-1204,-2595,-591,-1753,-395,-440
-1107,-2671,-627,-1693,-584,-439
-1058,-2775,-641,-1629,-673,-432
-1141,-2841,-632,-1568,-675,-430
-1229,-2902,-597,-1514,-769,-441
-1155,-2989,-662,-1496,-895,-508
-1042,-3084,-937,-1486,-937,-584
-1038,-3188,-1132,-1355,-1015,-608
-917,-3207,-1141,-1154,-1190,-643
-779,-3194,-1088,-1012,-1321,-657
-729,-3215,-1090,-920,-1393,-660
-702,-3239,-1096,-811,-1416,-701
-576,-3231,-1156,-717,-1473,-753
-479,-3237,-1210,-619,-1644,-750
-447,-3236,-1221,-512,-1800,-738
-382,-3235,-1294,-429,-1943,-751
-404,-3282,-1382,-332,-2058,-764
-329,-3315,-1436,-221,-2114,-847
-120,-3378,-1558,-131,-2161,-934
106,-3458,-1700,-6,-2173,-970
411,-3500,-1789,148,-2229,-995
602,-3529,-1811,301,-2197,-979
710,-3550,-1802,448,-2128,-946
804,-3544,-1750,599,-2170,-894
894,-3528,-1769,717,-2160,-893
973,-3481,-1840,862,-2016,-925
1029,-3400,-1827,1064,-1883,-947
1148,-3279,-1738,1247,-1825,-966
1164,-3139,-1634,1389,-1707,-976
1196,-3021,-1537,1488,-1586,-998
1358,-2876,-1417,1575,-1517,-1009
1529,-2738,-1315,1621,-1423,-973
1617,-2650,-1238,1636,-1351,-864
1672,-2563,-1217,1652,-1334,-732
1669,-2482,-1182,1654,-1287,-627
1668,-2458,-1169,1632,-1118,-605
1643,-2424,-1187,1635,-833,-637
1656,-2399,-1290,1665,-595,-671
1700,-2331,-1312,1745,-396,-673
1673,-2230,-1179,1817,-271,-635
1665,-2115,-1068,1836,-246,-566
1646,-1999,-934,1823,-201,-480
1514,-1924,-837,1761,-89,-419
1433,-1830,-703,1695,48,-427
1434,-1750,-578,1591,249,-484
1445,-1687,-617,1465,559,-540
1408,-1640,-689,1395,803,-546
1364,-1610,-766,1387,943,-508
1361,-1529,-702,1419,980,-440
1333,-1452,-569,1415,952,-316
1216,-1421,-486,1358,916,-191
1086,-1377,-422,1283,919,-125
1026,-1332,-363,1199,949,-127
994,-1298,-344,1085,1074,-164
966,-1262,-336,972,1218,-208
971,-1224,-314,877,1352,-238
1000,-1191,-305,785,1452,-225
1016,-1155,-359,709,1509,-158
1006,-1114,-370,685,1531,-41
917,-1057,-331,669,1464,99
728,-1043,-362,633,1461,181
564,-1002,-321,618,1595,133
522,-936,-198,580,1705,43
510,-892,-120,491,1829,-29
487,-856,-104,384,1920,-44
471,-831,-76,295,1869,13
391,-807,-51,208,1777,110
284,-804,-38,128,1721,182
208,-782,-4,67,1667,203
135,-761,-15,-4,1667,197
76,-767,-12,-74,1700,176
83,-733,18,-146,1722,151
98,-722,-14,-230,1727,170
21,-775,-30,-284,1659,260
-125,-824,65,-312,1565,342
-209,-857,119,-364,1493,349
-239,-910,172,-429,1461,325
-261,-938,196,-512,1459,295
-278,-989,126,-596,1439,281
-315,-1041,87,-629,1378,307
-433,-1083,158,-631,1291,352
-522,-1073,298,-672,1215,349
-566,-1082,333,-785,1170,308
-609,-1138,303,-898,1180,259
-643,-1172,266,-976,1203,211
-683,-1201,219,-1036,1205,194
-773,-1223,262,-1091,1098,227
-914,-1283,311,-1166,921,284
-1022,-1345,292,-1253,807,272
-1089,-1407,160,-1345,745,203
-1167,-1488,54,-1402,717,110
-1206,-1557,50,-1430,665,0
-1213,-1602,18,-1452,575,-89
-1246,-1711,-44,-1446,508,-154
-1368,-1806,7,-1409,454,-240
-1385,-1843,153,-1410,381,-398
-1291,-1872,180,-1497,330,-565
-1166,-1942,83,-1604,232,-636
-1079,-2032,-52,-1660,42,-606
-1093,-2170,-121,-1659,-162,-512
-1162,-2291,-86,-1653,-375,-446
-1160,-2453,-186,-1689,-547,-469
-1082,-2585,-396,-1702,-596,-578
-976,-2704,-590,-1662,-581,-711
-846,-2819,-683,-1552,-631,-793
-723,-2843,-629,-1422,-753,-817
-586,-2887,-576,-1352,-852,-816
-515,-2902,-557,-1302,-916,-798
-428,-2941,-668,-1270,-987,-780
-377,-3034,-797,-1196,-1085,-723
-299,-3073,-790,-1072,-1258,-665
-230,-3154,-763,-978,-1362,-641
-171,-3205,-799,-910,-1369,-655
-233,-3304,-833,-823,-1445,-636
-174,-3373,-840,-713,-1508,-691
-132,-3408,-900,-613,-1530,-747
-84,-3483,-905,-481,-1589,-798
151,-3539,-948,-371,-1580,-925
336,-3636,-1140,-264,-1440,-1066
590,-3678,-1249,-94,-1371,-1203
898,-3668,-1281,87,-1295,-1279
1090,-3646,-1300,279,-1189,-1255
1247,-3600,-1295,476,-1202,-1130
1351,-3523,-1243,669,-1297,-952
1321,-3459,-1230,815,-1279,-798
1313,-3372,-1237,943,-1247,-692
1361,-3260,-1227,1065,-1246,-616
1409,-3145,-1238,1165,-1179,-560
1493,-3025,-1230,1254,-1089,-528
1547,-2907,-1229,1345,-996,-478
1555,-2773,-1161,1445,-907,-426
1529,-2627,-1058,1516,-749,-398
1515,-2489,-966,1546,-637,-365
1517,-2367,-906,1556,-599,-308
1595,-2280,-886,1564,-549,-261
1689,-2200,-867,1584,-514,-174
1705,-2098,-793,1594,-514,-50
1618,-2023,-706,1567,-476,57
1469,-1989,-674,1500,-404,93
1413,-1991,-731,1432,-205,-8
1442,-1948,-797,1408,50,-138
1448,-1894,-786,1427,207,-200
1480,-1828,-715,1463,318,-221
1565,-1754,-625,1476,336,-170
1563,-1696,-523,1468,340,-53
1572,-1620,-416,1426,340,68
1516,-1552,-349,1340,330,202
1337,-1540,-304,1238,370,282
1260,-1533,-273,1131,474,240
1284,-1517,-304,1020,634,167
1210,-1505,-364,927,782,126
1129,-1523,-410,871,889,102
1157,-1508,-401,865,892,117
1152,-1453,-326,880,856,200
1097,-1393,-266,853,818,291
1011,-1373,-243,783,794,353
942,-1360,-280,695,915,334
891,-1357,-314,615,1076,279
945,-1310,-293,571,1176,255
1050,-1234,-230,524,1184,340
1030,-1191,-193,466,1088,538
821,-1165,-170,413,974,721
516,-1156,-164,349,988,727
366,-1145,-201,275,1211,549
428,-1086,-213,238,1332,405
513,-1032,-208,227,1328,410
493,-964,-136,236,1325,509
379,-888,7,227,1202,653
204,-869,124,155,1102,726
11,-903,86,33,1203,654
-5,-929,-8,-50,1314,514
58,-921,-14,-81,1352,443
25,-919,16,-111,1343,451
0,-907,47,-159,1299,474
-37,-908,46,-217,1269,511
-50,-926,50,-263,1237,545
-112,-923,102,-300,1213,566
-163,-921,130,-367,1197,571
-184,-922,110,-448,1195,580
-287,-967,102,-514,1163,618
-358,-1007,83,-561,1109,628
-467,-1053,98,-600,1116,607
-579,-1074,143,-645,1138,555
-625,-1084,206,-700,1125,489
-649,-1094,221,-776,1107,438
-698,-1104,158,-869,1112,389
-749,-1143,81,-945,1119,363
-796,-1219,53,-978,1027,391
-926,-1302,89,-988,890,454
-1107,-1316,188,-1000,778,456
-1222,-1357,272,-1079,754,371
-1253,-1382,186,-1201,771,233
-1243,-1434,74,-1291,764,129
-1340,-1517,112,-1326,682,99
-1442,-1539,181,-1371,572,53
-1455,-1629,165,-1448,494,-17
-1451,-1745,77,-1490,404,-71
-1470,-1858,30,-1501,299,-125
-1393,-1889,-53,-1534,204,-222
-1257,-1929,-149,-1588,139,-288
-1166,-2055,-231,-1618,37,-247
-1193,-2171,-256,-1585,-145,-135
-1281,-2278,-234,-1528,-353,-48
-1320,-2393,-148,-1501,-468,-58
-1316,-2520,-190,-1535,-484,-148
-1201,-2663,-411,-1569,-404,-267
-1113,-2819,-650,-1527,-429,-292
-1110,-2903,-692,-1398,-569,-237
-1105,-2918,-598,-1273,-716,-180
-1171,-2977,-546,-1198,-834,-123
-1168,-3026,-550,-1150,-976,-123
-1088,-3072,-663,-1112,-1123,-159
-1050,-3137,-770,-1032,-1254,-172
-1051,-3217,-741,-904,-1453,-168
-1056,-3222,-700,-804,-1566,-195
-1089,-3255,-672,-732,-1677,-242
-1154,-3351,-684,-657,-1839,-324
-1017,-3404,-769,-611,-1854,-527
-759,-3455,-910,-555,-1782,-730
-536,-3526,-991,-440,-1811,-810
-319,-3550,-1029,-323,-1788,-885
-180,-3602,-1081,-216,-1709,-916
-20,-3630,-1166,-100,-1726,-904
97,-3624,-1305,30,-1698,-890
98,-3626,-1347,208,-1699,-831
194,-3620,-1340,364,-1805,-789
285,-3602,-1386,475,-1797,-780
354,-3556,-1471,583,-1776,-773
456,-3485,-1538,714,-1856,-727
587,-3391,-1561,871,-1849,-677
690,-3276,-1545,1017,-1767,-657
774,-3161,-1484,1153,-1689,-638
903,-3043,-1428,1269,-1586,-644
1057,-2924,-1411,1374,-1454,-633
1138,-2804,-1266,1484,-1388,-571
1261,-2693,-1098,1538,-1327,-525
1392,-2594,-1014,1546,-1212,-468
1439,-2497,-973,1548,-1119,-365
1412,-2444,-967,1541,-1010,-273
1377,-2420,-1011,1535,-824,-238
1359,-2361,-1040,1552,-599,-253
1423,-2307,-1047,1587,-473,-259
1410,-2216,-992,1637,-411,-198
1340,-2130,-877,1664,-366,-133
1269,-2048,-797,1642,-266,-102
1231,-1976,-692,1604,-138,-87
1225,-1910,-575,1540,-82,-52
1190,-1839,-556,1458,40,-9
1110,-1781,-499,1380,161,24
1035,-1725,-431,1292,252,34
959,-1691,-421,1186,339,21
952,-1674,-504,1089,512,-37
929,-1674,-583,1036,664,-82
895,-1647,-585,1034,745,-89
908,-1601,-600,1041,779,-85
865,-1573,-617,1064,786,-57
698,-1519,-517,1102,818,-23
618,-1456,-362,1077,888,-65
617,-1407,-294,992,986,-113
669,-1384,-261,904,1048,-110
714,-1350,-184,826,1109,-53
634,-1314,-111,737,1119,79
517,-1301,-23,660,1035,208
348,-1276,-35,545,1077,220
168,-1313,-146,437,1264,103
113,-1339,-317,400,1433,-45
133,-1350,-438,459,1532,-138
51,-1273,-303,563,1646,-185
-3,-1204,-61,593,1628,-231
17,-1127,136,535,1595,-270
17,-1067,150,391,1696,-316
21,-1049,81,272,1745,-330
105,-990,93,212,1722,-312
114,-946,82,144,1745,-236
-53,-935,87,99,1704,-105
-240,-943,143,53,1572,-13
-340,-942,131,-31,1587,-23
-484,-971,96,-93,1595,-39
-535,-980,160,-118,1532,-67
-522,-935,230,-178,1524,-102
-648,-940,221,-271,1532,-107
-703,-959,256,-331,1476,-140
-649,-943,284,-405,1470,-184
-673,-955,282,-474,1451,-183
-722,-923,373,-524,1357,-136
-830,-923,450,-627,1222,-73
-900,-956,421,-766,1156,-66
-902,-1022,313,-891,1138,-107
-917,-1105,197,-975,1139,-140
-901,-1205,144,-1005,1088,-182
-901,-1279,86,-1012,1067,-220
-897,-1320,130,-1002,1026,-239
-847,-1319,200,-1022,907,-224
-813,-1310,215,-1084,798,-164
-864,-1334,218,-1154,677,-64
-914,-1420,197,-1221,557,13
-1003,-1499,162,-1268,485,39
-1124,-1535,130,-1321,436,11
-1168,-1614,94,-1385,423,-77
-1184,-1704,47,-1423,393,-150
-1191,-1772,40,-1439,305,-178
-1256,-1879,58,-1448,217,-160
-1358,-1973,13,-1464,70,-134
-1389,-2057,-11,-1489,-82,-154
-1382,-2201,-117,-1525,-147,-206
-1343,-2363,-259,-1524,-215,-259
-1262,-2474,-327,-1491,-280,-306
-1164,-2593,-349,-1444,-316,-319
-1124,-2707,-373,-1386,-419,-288
-1163,-2836,-403,-1319,-571,-232
-1211,-2933,-382,-1241,-758,-208
-1207,-3008,-373,-1196,-895,-241
-1129,-3109,-440,-1158,-946,-318
-975,-3129,-468,-1104,-1008,-387
-857,-3130,-457,-1057,-1109,-386
-787,-3137,-460,-1011,-1233,-335
-753,-3143,-511,-955,-1359,-285
-760,-3131,-573,-881,-1421,-271
-883,-3145,-535,-783,-1517,-266
-889,-3137,-523,-698,-1622,-348
-841,-3126,-578,-643,-1608,-490
-790,-3161,-661,-585,-1545,-656
-656,-3204,-768,-512,-1507,-835
-371,-3220,-807,-411,-1504,-969
-164,-3228,-846,-318,-1480,-1012
103,-3216,-905,-214,-1561,-980
209,-3204,-966,-112,-1715,-809
222,-3212,-1012,-14,-1890,-636
184,-3253,-1113,47,-1965,-554
164,-3301,-1266,117,-1903,-576
200,-3349,-1364,234,-1831,-656
268,-3348,-1425,388,-1808,-721
460,-3300,-1437,547,-1784,-776
638,-3263,-1427,676,-1726,-777
770,-3200,-1366,798,-1683,-736
944,-3124,-1346,900,-1623,-692
1049,-3021,-1368,1002,-1534,-624
1092,-2959,-1385,1108,-1481,-533
1106,-2912,-1319,1214,-1453,-472
1034,-2843,-1213,1294,-1343,-470
1037,-2756,-1123,1328,-1203,-550
1139,-2671,-1074,1321,-1012,-637
1230,-2586,-1016,1321,-847,-644
1278,-2494,-980,1320,-751,-594
1279,-2414,-982,1309,-697,-532
1279,-2331,-959,1308,-665,-488
1261,-2274,-938,1313,-593,-456
1276,-2215,-903,1330,-518,-446
1301,-2151,-837,1343,-388,-459
1319,-2087,-773,1333,-230,-467
1338,-2027,-745,1317,-118,-456
1337,-1969,-673,1300,-36,-429
1356,-1890,-577,1267,40,-402
1392,-1822,-526,1205,48,-328
1401,-1784,-512,1147,2,-207
1318,-1733,-514,1105,89,-113
1201,-1720,-506,1058,195,-89
1102,-1689,-490,1012,382,-137
1048,-1654,-428,969,539,-184
1068,-1618,-350,919,634,-206
1073,-1599,-260,859,770,-210
1061,-1546,-196,771,841,-166
1082,-1510,-188,662,812,-76
1096,-1510,-210,568,788,19
1017,-1501,-263,499,833,90
861,-1485,-326,436,919,108
768,-1490,-392,392,1032,57
689,-1496,-431,399,1167,-23
633,-1450,-431,434,1270,-72
643,-1372,-340,470,1259,-62
670,-1289,-172,469,1248,-14
658,-1186,-65,391,1256,68
606,-1122,-7,284,1180,199
530,-1090,35,176,1059,319
370,-1104,1,55,1061,356
221,-1136,-65,-50,1234,248
260,-1154,-189,-128,1532,53
379,-1140,-254,-133,1684,-32
441,-1101,-215,-89,1636,57
428,-1033,-152,-53,1549,201
318,-987,-83,-67,1523,326
160,-970,-30,-108,1548,395
36,-965,-12,-164,1561,422
-67,-971,10,-228,1533,460
-186,-982,51,-288,1470,508
-284,-1002,68,-357,1427,527
-427,-1044,-29,-429,1438,497
-519,-1065,-128,-460,1461,411
-511,-1054,-133,-451,1435,324
-462,-1027,-88,-439,1434,270
-449,-1003,9,-445,1405,266
-507,-1003,82,-485,1391,273
-546,-989,105,-539,1411,257
-583,-1005,135,-593,1406,263
-691,-1014,172,-651,1388,270
-750,-1009,171,-732,1285,268
-823,-1093,141,-814,1208,273
-948,-1160,94,-872,1187,249
-1016,-1223,80,-890,1131,197
-1106,-1285,70,-896,1070,149
-1193,-1307,106,-899,964,98
-1276,-1344,198,-946,832,28
-1319,-1420,226,-1032,763,-102
-1316,-1465,218,-1114,787,-271
-1318,-1479,197,-1206,864,-425
-1296,-1526,125,-1316,858,-526
-1231,-1589,71,-1390,706,-531
-1193,-1681,54,-1456,446,-446
-1218,-1772,48,-1522,168,-316
-1310,-1874,57,-1579,-80,-230
-1299,-1951,22,-1663,-228,-230
-1309,-2055,-134,-1764,-212,-306
-1306,-2188,-279,-1809,-165,-432
-1200,-2292,-407,-1782,-152,-558
-1093,-2384,-476,-1692,-322,-570
-1048,-2467,-481,-1569,-601,-503
-1049,-2567,-396,-1459,-825,-435
-921,-2614,-303,-1445,-791,-417
-1021,-2798,-489,-1507,-688,-406
-917,-2940,-721,-1455,-815,-444
-692,-2978,-889,-1351,-888,-441
-746,-3086,-1006,-1216,-928,-305
-886,-3152,-948,-1029,-1136,-179
-881,-3141,-863,-899,-1381,-154
-866,-3126,-859,-839,-1439,-177
-899,-3170,-887,-784,-1454,-216
-799,-3203,-952,-724,-1514,-311
-657,-3217,-1067,-672,-1495,-434
-579,-3264,-1164,-580,-1440,-530
-482,-3279,-1191,-459,-1418,-631
-419,-3293,-1218,-333,-1379,-726
-368,-3291,-1221,-179,-1421,-796
-300,-3259,-1191,-35,-1532,-844
-147,-3216,-1169,69,-1595,-904
-24,-3151,-1157,134,-1568,-939
105,-3136,-1172,167,-1592,-965
273,-3152,-1294,193,-1564,-984
431,-3157,-1463,287,-1528,-973
534,-3102,-1506,435,-1551,-917
564,-3025,-1494,568,-1536,-870
609,-2973,-1493,683,-1533,-830
728,-2924,-1532,799,-1581,-800
790,-2844,-1515,910,-1571,-760
786,-2749,-1439,1010,-1565,-704
833,-2646,-1297,1086,-1626,-639
879,-2594,-1220,1090,-1576,-595
905,-2565,-1223,1087,-1532,-551
967,-2537,-1266,1102,-1506,-526
969,-2557,-1337,1126,-1397,-538
1029,-2566,-1399,1177,-1214,-619
1088,-2543,-1417,1251,-1030,-712
1209,-2498,-1375,1319,-833,-795
1350,-2433,-1337,1363,-672,-818
1472,-2394,-1345,1388,-597,-744
1547,-2363,-1321,1432,-595,-594
1550,-2311,-1220,1478,-640,-429
1556,-2242,-1112,1478,-590,-316
1536,-2196,-1049,1444,-552,-214
1464,-2174,-1041,1413,-520,-137
1366,-2131,-1009,1402,-383,-146
1300,-2080,-961,1389,-202,-211
1245,-2022,-877,1375,-21,-280
1217,-1973,-806,1351,139,-336
1266,-1916,-813,1334,249,-344
1288,-1870,-839,1351,279,-273
1257,-1823,-809,1391,227,-163
1231,-1747,-713,1417,208,-95
1175,-1678,-616,1404,284,-80
1119,-1632,-538,1358,454,-122
1093,-1588,-513,1286,690,-214
1038,-1567,-503,1225,931,-288
1031,-1526,-418,1186,1100,-338
1091,-1464,-320,1135,1249,-353
1102,-1396,-224,1072,1354,-292
1066,-1340,-105,1001,1350,-167
1044,-1288,-15,912,1275,-29
963,-1236,10,809,1261,90
870,-1216,29,704,1249,178
801,-1198,61,603,1269,219
741,-1162,63,489,1364,220
638,-1160,12,373,1467,217
569,-1164,-47,287,1553,203
518,-1144,-75,231,1603,199
512,-1117,-86,193,1601,226
538,-1081,-93,170,1613,278
537,-1031,-68,145,1622,364
499,-972,-48,96,1587,452
382,-953,-37,28,1644,494
310,-916,-52,-38,1758,503
273,-882,-47,-92,1794,543
172,-840,-39,-141,1769,633
-19,-844,6,-190,1689,730
-186,-848,16,-258,1649,779
-272,-840,-24,-328,1596,799
-368,-844,-77,-378,1530,824
-463,-852,-89,-383,1464,840
-540,-844,-14,-373,1463,818
-605,-816,83,-383,1476,776
-692,-781,193,-416,1462,754
-786,-799,285,-490,1437,731
-838,-809,322,-590,1433,695
-943,-864,336,-697,1401,663
-1036,-925,323,-796,1368,620
-1108,-991,316,-881,1322,557
-1216,-1065,276,-962,1312,469
-1341,-1139,183,-1031,1329,343
-1406,-1212,71,-1061,1336,204
-1410,-1277,21,-1058,1344,75
-1344,-1303,29,-1055,1329,-43
-1285,-1339,52,-1087,1255,-104
-1257,-1382,87,-1127,1121,-101
-1254,-1395,106,-1181,986,-82
