ax,ay,az,gx,gy,gz
291,-1172,165,246,1355,604
324,-1143,199,223,1303,658
312,-1092,214,183,1222,747
210,-1080,257,148,1239,798
138,-1089,296,94,1346,741
99,-1012,289,11,1479,638
5,-941,287,-97,1495,625
-61,-978,235,-197,1413,689
-83,-1003,228,-243,1345,736
-161,-973,318,-264,1319,773
-246,-948,428,-328,1350,766
-316,-938,486,-436,1462,711
-374,-973,419,-523,1540,651
-437,-992,414,-530,1507,614
-499,-886,475,-543,1562,565
-583,-863,534,-618,1669,499
-636,-851,567,-716,1699,426
-663,-826,566,-834,1666,365
-685,-884,499,-952,1647,321
-727,-899,339,-1044,1602,307
-770,-901,282,-1075,1413,351
-806,-923,331,-1094,1196,399
-905,-898,381,-1191,1084,411
-1069,-962,355,-1357,1043,385
-1168,-1075,233,-1509,981,312
-1205,-1237,105,-1573,844,233
-1302,-1359,108,-1538,672,172
-1356,-1321,202,-1506,585,91
-1406,-1343,271,-1568,537,24
-1358,-1381,234,-1686,511,-44
-1312,-1441,168,-1815,454,-85
-1304,-1580,47,-1944,450,-85
-1275,-1758,-103,-2011,360,-25
-1314,-1926,-251,-2001,94,79
-1432,-2041,-345,-1938,-168,148
-1443,-2130,-388,-1880,-246,62
-1365,-2215,-451,-1874,-142,-128
-1283,-2316,-581,-1868,12,-272
-1180,-2445,-656,-1806,-18,-326
-1100,-2518,-727,-1712,-197,-294
-1113,-2577,-743,-1603,-393,-204
-1144,-2626,-713,-1499,-627,-129
-1108,-2621,-672,-1459,-812,-121
-1115,-2631,-692,-1490,-861,-120
-1172,-2724,-797,-1507,-861,-107
-1168,-2805,-934,-1493,-918,-130
-1130,-2852,-986,-1442,-1023,-155
-1124,-2916,-992,-1404,-1156,-146
-1080,-3003,-1094,-1399,-1266,-141
-1059,-3124,-1254,-1357,-1306,-174
-1057,-3197,-1369,-1236,-1343,-241
-1037,-3218,-1334,-1108,-1399,-348
-890,-3302,-1405,-1062,-1352,-492
-725,-3371,-1499,-990,-1368,-580
-627,-3449,-1552,-860,-1523,-600
-504,-3500,-1628,-721,-1662,-636
-399,-3536,-1718,-578,-1722,-698
-405,-3498,-1710,-392,-1736,-736
-432,-3396,-1590,-207,-1750,-779
-492,-3323,-1471,-90,-1763,-847
-528,-3277,-1437,-27,-1831,-926
-488,-3253,-1472,37,-1905,-1066
-352,-3218,-1502,108,-1829,-1256
-207,-3162,-1497,174,-1762,-1421
-46,-3142,-1585,226,-1688,-1529
235,-3154,-1786,309,-1518,-1636
425,-3151,-1909,454,-1438,-1692
528,-3149,-1923,661,-1464,-1651
665,-3115,-1815,887,-1522,-1590
758,-3067,-1645,1031,-1514,-1541
778,-3024,-1640,1073,-1421,-1472
783,-2968,-1752,1122,-1375,-1400
826,-2920,-1855,1230,-1394,-1362
931,-2846,-1913,1352,-1312,-1364
1035,-2781,-1867,1473,-1173,-1382
1065,-2718,-1716,1582,-1048,-1398
1083,-2608,-1584,1664,-884,-1424
1190,-2515,-1526,1703,-734,-1434
1290,-2425,-1422,1747,-739,-1350
1324,-2337,-1237,1765,-849,-1181
1354,-2283,-1157,1731,-905,-1018
1400,-2202,-1111,1686,-887,-873
1348,-2159,-1047,1640,-906,-726
1241,-2101,-977,1581,-830,-653
1188,-2054,-1025,1488,-496,-693
1137,-2087,-1161,1436,-81,-765
1090,-2054,-1173,1478,205,-829
1121,-1932,-1031,1524,295,-859
1229,-1831,-905,1497,362,-840
1281,-1739,-838,1445,353,-702
1284,-1618,-743,1393,232,-522
1252,-1541,-631,1326,148,-374
1162,-1509,-586,1234,205,-308
1014,-1499,-641,1131,387,-344
915,-1517,-681,1065,623,-479
890,-1495,-665,1042,1001,-697
974,-1462,-641,1019,1341,-871
1205,-1439,-594,992,1422,-898
1430,-1384,-457,951,1370,-740
1507,-1341,-329,861,1199,-413
1515,-1353,-299,752,952,-63
1478,-1362,-340,669,844,200
1249,-1359,-367,644,804,386
928,-1359,-397,620,932,374
684,-1370,-397,592,1382,151
602,-1350,-389,573,1796,-91
703,-1290,-289,548,1875,-208
810,-1259,-161,478,1802,-184
860,-1226,-84,382,1659,-32
913,-1212,-53,298,1436,173
911,-1201,-10,236,1183,374
796,-1165,48,161,1107,461
734,-1189,-67,74,1283,445
740,-1227,-197,60,1476,433
623,-1200,-130,99,1562,441
457,-1182,-49,90,1646,437
441,-1155,-40,28,1709,403
531,-1164,-172,-63,1738,400
546,-1177,-327,-100,1790,470
489,-1152,-409,-87,1760,598
411,-1132,-403,-35,1584,750
341,-1108,-347,20,1454,859
219,-1064,-229,54,1412,916
13,-1033,-147,49,1375,945
-153,-1013,-123,19,1330,928
-201,-985,-78,-10,1316,869
-270,-950,-24,-43,1306,822
-336,-937,23,-89,1235,796
-336,-928,104,-141,1169,744
-271,-898,127,-202,1213,690
-232,-913,139,-245,1294,646
-279,-911,109,-282,1370,611
-338,-944,122,-276,1481,591
-386,-939,272,-254,1493,577
-431,-875,437,-299,1383,591
-497,-883,496,-418,1261,635
-602,-931,444,-530,1144,668
-674,-898,398,-614,1077,645
-762,-916,357,-696,1158,568
-884,-983,262,-780,1262,463
-984,-1048,197,-813,1407,324
-1036,-1022,237,-844,1475,217
-1012,-994,314,-922,1281,208
-1020,-1097,317,-1043,1098,232
-1089,-1215,255,-1142,977,262
-1173,-1305,283,-1183,811,279
-1215,-1303,338,-1204,745,235
-1261,-1270,358,-1302,785,164
-1321,-1406,223,-1447,868,98
-1405,-1495,65,-1516,920,25
-1492,-1567,58,-1549,881,-55
-1520,-1679,22,-1622,879,-166
-1520,-1757,-118,-1711,913,-290
-1471,-1939,-359,-1752,899,-357
-1416,-2047,-441,-1674,698,-326
-1418,-2024,-254,-1578,356,-263
-1489,-2115,-192,-1617,183,-243
-1484,-2224,-332,-1687,124,-279
-1436,-2224,-480,-1698,-24,-316
-1393,-2260,-634,-1675,-217,-298
-1370,-2350,-710,-1607,-377,-275
-1331,-2423,-678,-1503,-456,-284
-1268,-2444,-554,-1414,-490,-318
-1284,-2486,-553,-1433,-461,-374
-1335,-2612,-698,-1462,-476,-368
-1359,-2707,-750,-1411,-580,-387
-1240,-2763,-801,-1389,-723,-446
-1097,-2869,-920,-1388,-863,-456
-1023,-2973,-1037,-1350,-989,-433
-939,-3013,-1061,-1281,-1203,-403
-883,-3027,-1062,-1193,-1392,-376
-877,-3019,-1029,-1101,-1422,-380
-878,-3020,-983,-1018,-1448,-404
-842,-3054,-963,-966,-1526,-454
-803,-3216,-1092,-934,-1570,-516
-645,-3269,-1146,-834,-1699,-623
-359,-3325,-1249,-770,-1694,-779
-160,-3410,-1415,-696,-1589,-853
-164,-3414,-1435,-512,-1588,-836
-206,-3384,-1362,-322,-1714,-802
-214,-3342,-1292,-197,-1832,-783
-311,-3297,-1234,-110,-1877,-798
-434,-3235,-1193,-52,-1919,-883
-483,-3158,-1190,-8,-1966,-1028
-430,-3133,-1307,10,-1976,-1250
-110,-3170,-1594,29,-1841,-1558
299,-3180,-1845,161,-1587,-1775
573,-3138,-1860,417,-1463,-1807
784,-3091,-1720,658,-1491,-1747
900,-3050,-1589,803,-1541,-1627
964,-3033,-1523,904,-1583,-1481
1044,-2981,-1507,989,-1658,-1349
1099,-2941,-1528,1048,-1705,-1226
1119,-2933,-1597,1111,-1695,-1119
1138,-2884,-1607,1210,-1628,-1090
1099,-2783,-1533,1295,-1380,-1150
1089,-2710,-1437,1335,-1128,-1223
1158,-2625,-1358,1352,-968,-1277
1239,-2540,-1376,1374,-841,-1254
1256,-2436,-1362,1444,-794,-1138
1270,-2331,-1256,1516,-845,-999
1311,-2274,-1091,1530,-839,-928
1266,-2200,-962,1487,-733,-898
1218,-2140,-922,1407,-625,-890
1214,-2148,-948,1316,-433,-949
1191,-2195,-1022,1270,-161,-1018
1245,-2189,-1106,1284,48,-1037
1325,-2125,-1089,1335,101,-981
1334,-2120,-1072,1358,86,-867
1354,-2104,-1032,1380,77,-752
1321,-2044,-886,1412,100,-676
1279,-1987,-768,1373,250,-651
1304,-1916,-674,1300,347,-628
1252,-1840,-605,1202,383,-591
1121,-1802,-644,1057,539,-587
1081,-1768,-687,971,686,-614
1171,-1724,-735,918,732,-585
1173,-1688,-761,892,725,-444
1046,-1662,-761,899,667,-289
1000,-1616,-700,913,533,-205
986,-1577,-591,908,552,-201
979,-1540,-530,865,779,-262
997,-1497,-451,813,915,-292
1029,-1443,-298,754,958,-261
1155,-1377,-198,643,1072,-209
1270,-1298,-172,502,1028,-44
1212,-1246,-170,372,878,205
1123,-1196,-266,247,757,396
983,-1165,-423,181,717,494
853,-1138,-571,200,931,461
748,-1082,-561,267,1166,383
724,-1038,-453,333,1418,324
721,-1006,-293,363,1563,328
691,-972,-211,326,1521,401
670,-940,-130,270,1509,475
617,-898,1,214,1479,538
604,-872,50,109,1389,607
580,-879,31,17,1352,624
543,-876,-48,-83,1476,532
574,-919,-265,-185,1833,383
649,-928,-472,-189,1949,376
688,-914,-550,-103,1796,541
637,-928,-434,27,1664,760
546,-899,-234,109,1564,972
388,-824,-58,115,1390,1150
118,-798,-14,47,1309,1245
-84,-800,17,-20,1409,1194
-182,-760,109,-85,1487,1094
-238,-786,100,-197,1474,1046
-281,-815,44,-254,1360,1046
-397,-785,58,-271,1202,1059
-556,-833,83,-317,1174,1013
-631,-900,29,-358,1303,846
-576,-884,3,-376,1489,652
-528,-884,21,-400,1604,554
-588,-944,83,-426,1543,567
-689,-983,158,-449,1334,598
-752,-994,233,-506,1192,584
-777,-1078,277,-590,1180,526
-771,-1126,242,-669,1196,484
-858,-1160,165,-717,1234,478
-1010,-1210,116,-757,1199,457
-1050,-1299,133,-790,1170,378
-1048,-1282,159,-832,1167,303
-1130,-1314,106,-914,1133,282
-1197,-1426,-18,-970,1158,231
-1182,-1471,-110,-975,1150,183
-1151,-1479,-34,-956,987,219
-1229,-1507,71,-992,825,265
-1351,-1528,93,-1084,719,267
-1482,-1644,91,-1181,687,205
-1509,-1799,43,-1244,672,85
-1470,-1872,39,-1242,522,-7
-1544,-1883,32,-1246,420,-87
-1607,-1852,-107,-1304,415,-212
-1557,-1916,-249,-1348,417,-369
-1457,-1944,-345,-1358,350,-497
-1288,-1972,-355,-1355,233,-539
-1139,-2065,-323,-1342,49,-487
-1063,-2092,-186,-1320,-213,-375
-1139,-2130,-120,-1369,-285,-304
-1213,-2246,-242,-1459,-262,-336
-1209,-2349,-436,-1523,-183,-438
-1118,-2433,-694,-1547,-81,-538
-1051,-2536,-856,-1469,-38,-559
-1052,-2612,-820,-1328,-87,-506
-1121,-2705,-746,-1207,-288,-387
-1131,-2753,-740,-1134,-584,-295
-1035,-2801,-753,-1133,-758,-303
-936,-2858,-888,-1140,-869,-314
-939,-2863,-982,-1081,-1027,-247
-966,-2885,-909,-980,-1192,-183
-994,-2909,-748,-921,-1300,-149
-1033,-2994,-632,-928,-1403,-166
-991,-3075,-756,-987,-1476,-253
-928,-3130,-996,-991,-1517,-332
-839,-3151,-1148,-890,-1574,-409
-642,-3205,-1283,-784,-1670,-465
-462,-3268,-1395,-639,-1707,-491
-432,-3248,-1269,-453,-1709,-506
-378,-3301,-1192,-358,-1700,-557
-176,-3299,-1198,-316,-1827,-586
-118,-3247,-1217,-258,-1854,-565
-174,-3240,-1235,-186,-1872,-532
-157,-3254,-1207,-115,-1882,-594
-84,-3217,-1244,-71,-1837,-732
-23,-3178,-1305,1,-1854,-829
50,-3134,-1346,121,-1915,-890
82,-3071,-1334,259,-1949,-927
69,-3005,-1240,391,-1954,-979
142,-2945,-1170,463,-1948,-1066
350,-2930,-1250,461,-1914,-1168
491,-2948,-1450,493,-1864,-1195
598,-2957,-1561,625,-1912,-1123
752,-2956,-1559,786,-1988,-1041
705,-2916,-1458,925,-1901,-971
570,-2871,-1325,1030,-1675,-993
704,-2832,-1313,1080,-1465,-1125
924,-2800,-1381,1123,-1248,-1200
1044,-2789,-1395,1205,-1098,-1164
1167,-2750,-1388,1303,-1101,-1042
1236,-2671,-1255,1405,-1173,-850
1181,-2586,-1097,1458,-1187,-676
1041,-2521,-1067,1461,-1085,-597
948,-2451,-986,1479,-975,-609
925,-2398,-926,1471,-798,-685
948,-2369,-899,1446,-612,-759
1018,-2340,-950,1415,-405,-821
1114,-2291,-972,1407,-288,-813
1109,-2223,-905,1411,-221,-754
1082,-2179,-849,1375,-138,-696
1132,-2141,-822,1359,-62,-638
1119,-2084,-822,1360,-1,-560
1003,-2046,-768,1368,104,-513
899,-1998,-737,1355,247,-549
875,-1942,-723,1312,355,-597
882,-1950,-647,1269,448,-629
885,-1899,-510,1233,498,-651
1003,-1834,-419,1139,574,-666
1064,-1856,-473,1008,629,-607
1057,-1839,-622,948,619,-500
1167,-1788,-645,959,610,-400
1229,-1706,-566,980,568,-266
1031,-1672,-445,972,537,-124
763,-1658,-349,924,756,-180
774,-1594,-240,843,1022,-345
874,-1539,-140,730,1111,-379
866,-1525,-166,597,1120,-291
872,-1503,-215,526,984,-142
897,-1502,-277,499,906,21
951,-1494,-335,518,838,180
795,-1411,-295,560,759,280
494,-1417,-279,545,1060,158
500,-1390,-286,519,1555,-124
683,-1338,-261,512,1693,-214
722,-1307,-99,512,1598,-80
692,-1239,125,466,1475,92
769,-1168,268,335,1284,269
813,-1163,227,154,1113,472
688,-1202,58,20,949,667
477,-1269,-79,-13,1002,700
395,-1275,-115,6,1324,570
360,-1283,-180,18,1534,496
286,-1312,-230,55,1651,478
249,-1267,-120,114,1625,479
257,-1245,-91,89,1563,499
237,-1226,-129,54,1509,542
200,-1202,-111,34,1383,635
167,-1181,-31,15,1248,725
109,-1190,-55,-33,1162,780
-29,-1226,-148,-54,1257,768
-176,-1251,-125,-15,1454,700
-271,-1217,-18,34,1525,643
-310,-1169,52,38,1499,605
-396,-1127,101,11,1498,578
-464,-1108,141,-33,1455,553
-498,-1073,155,-78,1385,506
-544,-1052,175,-129,1396,429
-545,-1094,213,-185,1476,310
-541,-1131,258,-230,1567,183
-501,-1158,344,-270,1600,101
-444,-1141,380,-340,1567,46
-448,-1131,326,-431,1542,52
-473,-1106,314,-492,1469,106
-552,-1114,295,-565,1345,175
-717,-1150,255,-636,1341,201
-867,-1152,290,-692,1333,157
-919,-1173,213,-807,1339,66
-950,-1223,5,-885,1393,-6
-1048,-1255,-45,-859,1306,-35
-1103,-1293,48,-834,1204,-92
-1066,-1314,169,-852,1133,-155
-1060,-1343,214,-924,1036,-186
-1065,-1351,206,-1009,987,-224
-1047,-1372,154,-1097,944,-251
-1020,-1347,43,-1188,865,-245
-1066,-1350,-57,-1272,735,-201
-1080,-1435,-146,-1332,634,-184
-1078,-1565,-142,-1336,585,-199
-1200,-1649,-83,-1323,571,-222
-1297,-1726,-177,-1330,560,-317
-1274,-1739,-256,-1310,557,-465
-1240,-1788,-286,-1308,594,-581
-1202,-1834,-279,-1315,520,-635
-1141,-1870,-276,-1332,406,-663
-1079,-1906,-280,-1350,258,-621
-1068,-1909,-277,-1371,-34,-507
-1093,-1956,-304,-1410,-210,-424
-1148,-2045,-401,-1442,-254,-418
-1144,-2237,-588,-1440,-241,-497
-1086,-2383,-691,-1382,-137,-644
-1013,-2491,-682,-1300,-47,-766
-935,-2531,-626,-1230,-114,-783
-832,-2593,-647,-1213,-250,-725
-805,-2636,-631,-1201,-498,-593
-892,-2620,-561,-1194,-771,-462
-925,-2640,-583,-1237,-974,-409
-760,-2716,-815,-1301,-1096,-450
-635,-2832,-1003,-1278,-1066,-495
-647,-2917,-1009,-1160,-1072,-519
-595,-2983,-888,-1043,-1150,-579
-423,-2992,-897,-1003,-1134,-692
-287,-2991,-976,-978,-1095,-727
-288,-2999,-1024,-896,-1214,-640
-238,-2928,-1076,-821,-1387,-545
-212,-2899,-1101,-747,-1571,-385
-193,-2936,-1133,-670,-1606,-406
-214,-2974,-1132,-575,-1638,-404
-233,-2965,-1087,-487,-1759,-455
-134,-3000,-1075,-428,-1661,-642
39,-3023,-1102,-361,-1461,-847
301,-3040,-1123,-278,-1366,-964
449,-3032,-1103,-185,-1339,-958
388,-3030,-1086,-86,-1365,-878
359,-3042,-1069,-2,-1478,-848
420,-3060,-1087,51,-1560,-873
526,-3068,-1151,109,-1565,-925
689,-3106,-1270,166,-1494,-974
777,-3133,-1397,272,-1443,-960
836,-3158,-1487,412,-1400,-932
975,-3191,-1499,552,-1382,-926
1152,-3220,-1518,682,-1365,-900
1213,-3211,-1552,819,-1204,-856
1203,-3148,-1512,967,-1060,-823
1229,-3092,-1420,1089,-984,-788
1259,-2982,-1290,1189,-965,-709
1288,-2875,-1229,1253,-967,-593
1287,-2819,-1248,1293,-979,-445
1187,-2770,-1260,1357,-969,-320
1096,-2697,-1242,1426,-909,-261
1008,-2633,-1187,1473,-840,-240
859,-2602,-1116,1497,-697,-262
783,-2567,-1033,1508,-495,-345
757,-2525,-971,1510,-336,-421
793,-2467,-1017,1494,-217,-454
840,-2421,-985,1489,-157,-426
792,-2371,-892,1493,-176,-360
885,-2332,-966,1469,-196,-298
1089,-2259,-948,1491,-243,-218
1088,-2187,-807,1507,-332,-75
873,-2143,-736,1475,-412,19
690,-2079,-716,1415,-233,-117
703,-1987,-699,1350,152,-402
850,-1906,-761,1287,430,-612
969,-1858,-785,1265,567,-659
1055,-1798,-619,1296,533,-593
1139,-1692,-474,1240,399,-474
1232,-1693,-557,1113,250,-298
1319,-1655,-542,1095,85,-121
1287,-1596,-542,1078,-45,24
1162,-1598,-505,1046,19,68
964,-1551,-316,1054,270,-44
826,-1509,-254,961,621,-238
877,-1543,-345,829,1002,-435
1008,-1532,-415,769,1291,-529
999,-1507,-357,753,1415,-449
975,-1467,-294,719,1376,-282
1026,-1436,-279,654,1131,-48
1017,-1367,-183,605,820,214
1049,-1314,-208,503,625,404
920,-1337,-327,414,598,521
720,-1361,-408,390,857,491
601,-1378,-376,406,1105,370
546,-1347,-243,404,1222,283
473,-1334,-167,350,1250,271
465,-1320,-164,289,1251,280
517,-1297,-148,252,1291,301
503,-1274,-64,225,1270,359
455,-1265,-71,174,1260,405
456,-1262,-81,148,1284,421
441,-1252,-121,117,1324,445
362,-1242,-202,93,1324,499
236,-1243,-245,96,1315,509
189,-1225,-240,112,1451,451
210,-1213,-199,109,1485,445
225,-1210,-210,87,1441,510
203,-1224,-247,91,1376,626
66,-1185,-144,141,1192,781
-74,-1129,17,152,1037,869
-161,-1079,117,91,1022,858
-302,-1064,125,-1,1144,781
-384,-1083,73,-92,1318,643
-397,-1057,96,-144,1453,513
-431,-1046,136,-204,1465,462
-470,-1020,170,-281,1371,438
-484,-1006,190,-355,1303,394
-481,-1034,164,-415,1292,348
-479,-1057,155,-445,1322,284
-463,-1071,271,-454,1350,226
-443,-1077,367,-523,1343,198
-459,-1099,304,-631,1323,224
-542,-1104,260,-691,1247,264
-621,-1105,239,-757,1214,283
-682,-1105,130,-824,1194,268
-755,-1095,-17,-865,1192,241
-833,-1076,-111,-866,1185,224
-898,-1098,-39,-859,1133,218
-1003,-1133,66,-886,1116,190
-1045,-1150,121,-955,1123,148
-1105,-1216,150,-1021,1072,145
-1216,-1321,192,-1073,967,161
-1296,-1313,257,-1127,804,131
-1330,-1285,206,-1242,725,51
-1356,-1371,7,-1381,766,-39
-1372,-1442,-186,-1423,735,-112
-1433,-1441,-255,-1423,626,-167
-1461,-1566,-254,-1450,646,-269
-1430,-1673,-278,-1494,648,-385
-1378,-1791,-321,-1515,546,-451
-1288,-1914,-315,-1508,361,-477
-1194,-1868,-293,-1511,154,-476
-1142,-1896,-401,-1570,37,-431
-1119,-1981,-527,-1589,-124,-345
-1130,-2034,-602,-1548,-259,-288
-1112,-2176,-670,-1543,-313,-270
-1198,-2294,-737,-1499,-391,-271
-1132,-2425,-873,-1437,-377,-338
-1002,-2482,-863,-1334,-422,-406
-964,-2481,-750,-1271,-493,-423
-923,-2525,-667,-1291,-555,-400
-893,-2563,-777,-1322,-695,-338
-906,-2571,-999,-1319,-839,-224
-999,-2629,-1037,-1236,-983,-100
-1080,-2688,-906,-1158,-1038,-106
-1090,-2776,-938,-1173,-962,-266
-1054,-2905,-1137,-1172,-945,-429
-876,-2957,-1184,-1093,-970,-587
-657,-2970,-1184,-1023,-1024,-677
-534,-3022,-1256,-962,-1114,-650
-516,-2961,-1177,-852,-1253,-586
-528,-2867,-1120,-785,-1399,-519
-575,-2825,-1103,-772,-1545,-447
-651,-2813,-1125,-769,-1672,-407
-640,-2848,-1205,-770,-1809,-454
-545,-2882,-1327,-780,-1822,-617
-448,-3007,-1575,-767,-1663,-826
-400,-3062,-1731,-620,-1555,-953
-348,-3041,-1662,-375,-1537,-1013
-307,-2990,-1514,-177,-1666,-1004
-279,-3007,-1354,-75,-1899,-979
-170,-3049,-1291,-56,-2003,-1041
-76,-3074,-1343,-69,-2100,-1088
23,-3097,-1434,-70,-2212,-1109
259,-3135,-1639,-60,-2262,-1159
389,-3179,-1900,9,-2206,-1188
473,-3197,-2101,177,-2114,-1205
579,-3185,-2094,419,-2026,-1262
742,-3120,-2015,617,-1888,-1348
881,-3040,-1935,775,-1714,-1401
1061,-2943,-1819,929,-1599,-1406
1182,-2826,-1692,1055,-1485,-1335
1218,-2746,-1611,1130,-1435,-1171
1249,-2661,-1505,1196,-1488,-987
1267,-2558,-1314,1245,-1498,-832
1263,-2511,-1207,1226,-1424,-692
1224,-2509,-1247,1199,-1356,-566
1124,-2519,-1263,1244,-1270,-481
1012,-2476,-1272,1317,-1145,-471
941,-2427,-1273,1376,-918,-537
882,-2374,-1281,1430,-707,-612
862,-2319,-1319,1475,-593,-635
884,-2238,-1261,1527,-542,-618
948,-2160,-1178,1542,-479,-584
951,-2097,-1061,1526,-441,-517
913,-2025,-944,1486,-396,-452
905,-1926,-846,1419,-398,-405
931,-1856,-853,1322,-363,-382
880,-1865,-882,1264,-293,-337
810,-1831,-769,1286,-181,-356
836,-1755,-685,1266,-14,-432
810,-1753,-765,1201,184,-496
713,-1817,-810,1219,404,-574
822,-1714,-657,1283,632,-691
977,-1632,-488,1245,697,-672
983,-1604,-388,1134,670,-537
1029,-1596,-315,991,673,-436
1069,-1563,-283,829,583,-288
1074,-1583,-446,661,457,-95
977,-1651,-645,591,427,35
787,-1636,-714,625,612,23
670,-1604,-693,666,868,-82
591,-1563,-599,671,1080,-189
547,-1525,-524,623,1254,-284
601,-1494,-456,572,1343,-343
711,-1429,-431,522,1334,-308
810,-1398,-486,478,1340,-202
868,-1364,-439,496,1256,-37
844,-1297,-231,507,1154,120
719,-1278,-128,410,1142,220
643,-1310,-172,296,1241,235
678,-1323,-277,220,1345,229
620,-1314,-345,188,1276,335
468,-1311,-344,185,1279,444
344,-1307,-243,192,1370,486
304,-1318,-271,144,1426,512
263,-1343,-382,120,1421,578
99,-1331,-314,168,1357,632
-9,-1299,-226,171,1476,553
29,-1273,-224,117,1679,421
53,-1276,-318,59,1764,393
63,-1263,-361,53,1744,443
60,-1214,-273,72,1634,523
-30,-1177,-204,52,1507,638
-203,-1189,-196,10,1447,708
-299,-1188,-181,-11,1431,674
-334,-1182,-151,-22,1446,617
-402,-1156,-99,-21,1512,556
-461,-1120,-31,-43,1521,502
-461,-1137,37,-90,1492,455
-442,-1165,51,-142,1468,397
-464,-1147,83,-179,1509,335
-473,-1166,173,-218,1562,274
-446,-1156,209,-291,1521,248
-445,-1128,219,-368,1445,262
-508,-1124,188,-450,1374,296
-618,-1120,201,-527,1269,338
-734,-1120,274,-607,1174,325
-744,-1163,282,-736,1220,240
-723,-1222,174,-852,1257,167
-727,-1244,121,-903,1226,134
-744,-1299,81,-935,1242,98
-793,-1316,10,-972,1229,81
-841,-1308,-37,-1003,1101,105
-923,-1360,-79,-1052,1010,132
-1060,-1400,-131,-1089,929,132
-1122,-1446,-157,-1119,815,95
-1135,-1555,-216,-1154,752,52
-1209,-1594,-165,-1146,659,12
-1302,-1553,-90,-1185,587,-83
-1338,-1578,-185,-1304,645,-237
-1316,-1626,-328,-1374,667,-394
-1219,-1710,-359,-1378,642,-505
-1152,-1809,-391,-1365,591,-555
-1134,-1837,-333,-1331,468,-563
-1125,-1878,-300,-1337,307,-554
-1057,-1896,-341,-1371,116,-542
-974,-1910,-469,-1410,-66,-511
-945,-1979,-685,-1422,-179,-459
-949,-2039,-766,-1372,-307,-415
-996,-2073,-763,-1336,-419,-410
-990,-2189,-827,-1339,-428,-456
-1003,-2334,-940,-1334,-356,-531
-1001,-2411,-996,-1274,-291,-633
-935,-2430,-951,-1186,-264,-726
-873,-2477,-888,-1130,-357,-704
-776,-2497,-781,-1078,-591,-595
-755,-2485,-708,-1068,-897,-448
-830,-2495,-758,-1117,-1098,-314
-901,-2530,-808,-1152,-1248,-278
-946,-2614,-940,-1183,-1274,-366
-928,-2756,-1112,-1183,-1165,-545
-740,-2847,-1195,-1106,-1087,-740
-569,-2870,-1192,-995,-1036,-858
-474,-2910,-1197,-928,-1000,-893
-311,-2950,-1254,-884,-1128,-873
-173,-2955,-1328,-826,-1338,-775
-168,-3020,-1376,-773,-1557,-632
-189,-2979,-1354,-687,-1773,-551
-226,-2902,-1247,-627,-1893,-531
-317,-2856,-1186,-636,-1926,-590
-365,-2819,-1270,-702,-1797,-754
-369,-2850,-1522,-737,-1722,-886
-227,-2930,-1798,-679,-1716,-1020
-27,-2950,-1968,-501,-1712,-1162
191,-2949,-2078,-275,-1696,-1227
397,-2920,-2054,-10,-1796,-1226
560,-2879,-1932,238,-1948,-1170
621,-2810,-1763,404,-2074,-1058
672,-2759,-1553,486,-2164,-957
716,-2746,-1435,491,-2116,-924
716,-2736,-1517,445,-1971,-908
700,-2761,-1647,460,-1806,-918
694,-2773,-1735,551,-1709,-938
755,-2771,-1815,690,-1605,-962
879,-2720,-1756,862,-1496,-982
928,-2685,-1678,992,-1373,-969
991,-2654,-1674,1075,-1251,-933
1025,-2639,-1652,1146,-1264,-842
1009,-2637,-1601,1204,-1217,-770
957,-2600,-1584,1246,-1094,-725
925,-2559,-1549,1278,-1025,-694
968,-2533,-1543,1294,-969,-676
993,-2456,-1547,1317,-915,-629
936,-2340,-1497,1353,-866,-581
875,-2253,-1479,1356,-805,-555
870,-2230,-1492,1361,-662,-583
906,-2209,-1487,1409,-506,-635
947,-2164,-1418,1490,-390,-657
983,-2054,-1249,1555,-263,-672
1022,-1993,-1123,1538,-107,-659
976,-1949,-965,1508,-14,-633
1061,-1865,-865,1444,93,-656
1170,-1816,-861,1338,219,-628
1190,-1801,-889,1237,144,-475
1182,-1770,-931,1170,-26,-300
1091,-1729,-921,1154,-62,-165
921,-1709,-867,1129,-101,-112
861,-1689,-801,1083,16,-209
870,-1700,-789,1027,304,-362
955,-1722,-878,984,574,-454
1040,-1710,-844,1007,615,-413
1063,-1673,-734,1022,601,-328
1009,-1672,-681,986,748,-254
980,-1668,-616,958,817,-186
1018,-1608,-551,910,732,-96
978,-1604,-576,831,746,-8
897,-1605,-596,790,904,2
895,-1600,-568,769,1055,-20
938,-1580,-517,740,1168,-8
912,-1544,-519,702,1167,81
836,-1527,-528,672,1120,192
808,-1467,-461,668,1081,269
852,-1407,-412,622,971,379
757,-1360,-426,573,894,513
467,-1363,-425,552,1021,516
349,-1361,-434,518,1420,317
384,-1351,-417,503,1702,158
432,-1324,-337,497,1716,172
453,-1320,-242,459,1543,306
466,-1292,-191,400,1242,495
431,-1256,-185,339,985,656
254,-1265,-223,270,932,691
127,-1323,-323,206,1315,490
164,-1371,-477,190,1824,241
265,-1404,-515,255,2018,161
304,-1354,-336,333,1934,263
314,-1292,-198,303,1705,461
295,-1252,-132,228,1401,703
251,-1212,-138,152,1142,899
150,-1212,-266,66,1110,994
-63,-1241,-386,59,1234,1012
-261,-1222,-351,117,1305,937
-337,-1197,-267,142,1378,828
-366,-1178,-172,126,1424,749
-405,-1203,-120,78,1431,711
-459,-1199,-105,43,1373,681
-454,-1161,-53,32,1269,642
-460,-1158,28,12,1258,582
-487,-1133,40,-51,1384,485
-487,-1159,38,-116,1467,402
-439,-1185,49,-173,1530,349
-448,-1174,56,-223,1505,365
-528,-1162,42,-277,1412,407
-604,-1164,28,-317,1385,408
-680,-1091,109,-332,1357,380
-736,-1021,130,-395,1321,363
-828,-1015,95,-454,1280,372
-937,-979,139,-481,1155,403
-1019,-968,304,-538,965,417
-1123,-1006,329,-668,926,361
-1199,-1044,240,-779,962,252
-1217,-1129,172,-840,974,133
-1161,-1211,208,-874,1034,-6
-1048,-1305,213,-938,1067,-104
-1015,-1429,161,-993,1057,-101
-1097,-1432,185,-1018,951,-65
-1112,-1449,102,-1099,835,-32
-1184,-1499,-24,-1171,744,2
-1254,-1486,-115,-1214,546,20
-1279,-1524,-141,-1256,434,-4
-1295,-1710,-226,-1319,500,-80
-1273,-1814,-311,-1349,538,-187
-1238,-1903,-344,-1343,527,-259
-1222,-1986,-299,-1320,474,-308
-1115,-2000,-339,-1339,405,-354
-1072,-2038,-436,-1358,275,-275
-1196,-2095,-393,-1315,30,-113
-1271,-2133,-262,-1292,-225,-21
-1247,-2211,-359,-1338,-358,-22
-1182,-2285,-597,-1370,-413,-49
-1170,-2398,-658,-1323,-487,-75
-1139,-2482,-613,-1273,-547,-145
-1098,-2490,-684,-1276,-529,-236
-1074,-2562,-790,-1252,-514,-291
-1055,-2612,-843,-1169,-588,-321
-996,-2671,-911,-1092,-638,-355
-958,-2711,-865,-986,-723,-352
-1020,-2712,-749,-925,-868,-325
-1037,-2774,-807,-979,-989,-335
-941,-2810,-928,-1011,-1129,-376
-877,-2817,-1030,-1000,-1218,-393
-850,-2849,-1157,-973,-1295,-401
-776,-2859,-1216,-906,-1337,-453
-723,-2911,-1207,-818,-1316,-513
-585,-2951,-1199,-719,-1339,-576
-387,-2975,-1207,-632,-1394,-637
-266,-2992,-1226,-561,-1364,-672
-235,-3007,-1206,-483,-1359,-670
-244,-3002,-1141,-401,-1467,-619
-326,-2964,-1057,-341,-1608,-566
-424,-2956,-1103,-332,-1681,-580
-479,-3005,-1229,-311,-1720,-654
-445,-3015,-1337,-237,-1704,-793
-398,-3004,-1441,-149,-1648,-927
-334,-2975,-1482,-43,-1623,-1042
-195,-2905,-1507,39,-1592,-1172
-3,-2883,-1614,111,-1504,-1257
142,-2833,-1632,251,-1525,-1231
266,-2729,-1520,376,-1679,-1132
389,-2690,-1418,442,-1783,-1016
556,-2688,-1423,479,-1781,-940
624,-2697,-1470,531,-1742,-877
651,-2748,-1467,622,-1654,-891
767,-2750,-1499,720,-1431,-994
845,-2771,-1557,834,-1186,-1052
884,-2777,-1550,973,-1025,-1076
937,-2738,-1451,1092,-908,-1093
1002,-2704,-1312,1155,-851,-1059
1056,-2663,-1219,1179,-879,-957
1121,-2607,-1158,1174,-940,-836
1158,-2571,-1169,1136,-925,-730
1123,-2522,-1170,1135,-867,-644
1069,-2454,-1188,1145,-784,-591
1001,-2406,-1227,1167,-626,-579
898,-2378,-1288,1221,-476,-582
845,-2295,-1176,1310,-387,-617
868,-2196,-1026,1329,-232,-684
870,-2185,-941,1294,-60,-714
913,-2144,-909,1268,-10,-709
1025,-2103,-861,1247,10,-653
1033,-2048,-750,1225,5,-554
1083,-2004,-699,1162,17,-474
1165,-1980,-700,1093,50,-384
1086,-1960,-707,1048,90,-288
948,-1922,-706,991,263,-300
885,-1911,-714,935,523,-413
910,-1907,-769,908,744,-519
957,-1926,-835,913,942,-568
984,-1904,-769,963,1065,-554
1014,-1856,-656,975,1013,-430
1009,-1838,-554,943,813,-230
1025,-1766,-479,892,622,-43
987,-1711,-463,815,420,147
907,-1688,-518,723,311,293
838,-1680,-536,665,300,359
738,-1658,-539,618,317,394
551,-1698,-657,566,507,375
376,-1778,-809,606,777,303
309,-1758,-736,757,924,215
301,-1674,-502,857,981,139
235,-1624,-352,852,973,101
297,-1605,-327,808,952,64
456,-1569,-278,804,911,62
514,-1466,-36,810,923,114
503,-1403,132,704,966,168
485,-1392,132,553,965,240
462,-1363,99,442,977,287
326,-1363,50,364,1050,306
228,-1347,-2,305,1226,265
187,-1358,-89,245,1361,222
158,-1383,-173,222,1394,224
195,-1356,-157,243,1317,265
169,-1297,-80,246,1175,355
117,-1274,-34,211,1082,412
120,-1235,1,174,1143,377
150,-1182,68,132,1232,333
161,-1171,96,63,1343,300
171,-1164,58,-8,1482,277
158,-1135,10,-55,1456,341
71,-1138,-49,-86,1387,442
-27,-1147,-53,-94,1372,495
-149,-1096,-5,-92,1297,538
-259,-1069,-2,-112,1158,595
-190,-1032,130,-103,1010,620
-183,-996,274,-175,1015,603
-355,-1047,267,-312,1269,544
-473,-1107,268,-396,1477,423
-399,-1102,242,-475,1518,310
-341,-1073,165,-556,1532,286
-451,-1077,119,-606,1503,346
-538,-1004,157,-630,1321,420
-573,-988,227,-686,1124,476
-697,-1008,201,-774,1088,485
-824,-1030,150,-843,1062,445
-870,-1130,92,-884,1081,353
-867,-1107,74,-893,1136,246
-924,-1107,92,-931,1208,167
-991,-1194,119,-994,1280,102
-995,-1206,121,-1080,1220,56
-955,-1161,103,-1194,1068,84
-1016,-1250,-26,-1310,922,175
-1156,-1316,-186,-1348,730,249
-1266,-1353,-235,-1333,587,241
-1357,-1464,-218,-1313,519,173
-1363,-1502,-181,-1290,471,45
-1185,-1502,-133,-1315,524,-108
-1153,-1587,-337,-1416,712,-224
-1236,-1656,-544,-1440,779,-276
-1186,-1737,-540,-1387,639,-290
-1012,-1775,-446,-1374,379,-234
-1001,-1833,-341,-1392,84,-76
-1138,-1898,-272,-1440,-88,9
-1151,-1941,-355,-1513,-100,-66
-1121,-1980,-530,-1573,-10,-163
-1135,-2009,-695,-1586,34,-225
-1158,-2033,-764,-1551,57,-306
-1179,-2086,-787,-1531,111,-391
-1096,-2159,-855,-1526,64,-454
-936,-2259,-869,-1488,-117,-450
-814,-2301,-900,-1442,-308,-404
-685,-2333,-947,-1394,-495,-323
-741,-2379,-919,-1341,-693,-212
-864,-2432,-938,-1323,-768,-186
-909,-2473,-1026,-1317,-785,-254
-919,-2519,-1159,-1302,-810,-320
-980,-2585,-1201,-1240,-831,-377
-952,-2649,-1303,-1192,-842,-481
-833,-2712,-1367,-1114,-799,-607
-647,-2755,-1438,-1003,-730,-696
-483,-2817,-1420,-875,-758,-685
-435,-2812,-1276,-756,-890,-610
-457,-2819,-1271,-725,-1072,-499
-505,-2856,-1374,-693,-1263,-407
-561,-2896,-1429,-617,-1409,-382
-654,-2922,-1425,-550,-1436,-433
-686,-3002,-1468,-508,-1447,-565
-479,-2990,-1568,-441,-1400,-763
-392,-2972,-1631,-327,-1419,-820
-397,-2970,-1536,-196,-1477,-842
-286,-2895,-1472,-130,-1547,-908
-238,-2885,-1507,-81,-1590,-914
-125,-2883,-1511,1,-1623,-951
97,-2811,-1478,53,-1610,-1016
162,-2778,-1544,86,-1576,-977
211,-2754,-1619,178,-1599,-896
169,-2676,-1533,302,-1710,-793
7,-2620,-1503,364,-1766,-725
-116,-2588,-1554,427,-1717,-766
-134,-2510,-1524,506,-1718,-877
-158,-2477,-1512,557,-1634,-1030
-43,-2477,-1547,608,-1475,-1223
183,-2489,-1553,687,-1358,-1386
403,-2465,-1545,762,-1168,-1499
577,-2443,-1520,831,-1073,-1499
726,-2405,-1478,894,-1102,-1419
841,-2359,-1412,940,-1165,-1282
889,-2336,-1388,959,-1249,-1119
944,-2308,-1359,991,-1376,-962
969,-2301,-1324,1012,-1484,-793
847,-2287,-1260,1032,-1501,-674
686,-2290,-1312,1025,-1415,-669
653,-2259,-1341,1055,-1240,-754
720,-2257,-1343,1115,-1060,-848
779,-2228,-1346,1155,-886,-874
729,-2180,-1263,1206,-769,-850
657,-2177,-1187,1194,-727,-810
740,-2107,-1110,1177,-738,-817
871,-2071,-1076,1154,-714,-822
916,-2090,-1018,1119,-647,-767
972,-2036,-899,1087,-616,-707
1052,-2005,-807,1013,-597,-640
1073,-2007,-783,930,-527,-544
1063,-1992,-788,875,-406,-462
1029,-2007,-836,833,-353,-359
964,-1981,-883,822,-372,-225
923,-1920,-777,870,-407,-161
928,-1896,-688,841,-339,-174
880,-1920,-681,773,-141,-189
787,-1888,-660,758,65,-240
791,-1849,-600,727,291,-363
851,-1843,-679,648,564,-481
918,-1896,-841,628,828,-551
957,-1937,-828,715,953,-542
1013,-1881,-718,750,969,-478
1042,-1852,-702,703,938,-376
